trialno,rt,response,intensity,accuracy,id,logrt
1,7.995,0.0,-0.3255,1,VH88,2.0788163462859175
2,1.247,1.0,-0.3255,0,VH88,0.2207406666978995
3,1.823,0.0,0.3225,0,VH88,0.6004834956965259
4,0.88,1.0,0.3225,1,VH88,-0.12783337150988489
5,1.472,1.0,0.3225,1,VH88,0.38662202030668447
6,1.098,1.0,0.3225,1,VH88,0.09349034308733897
7,1.166,0.0,-0.3255,1,VH88,0.15357908792830058
8,1.229,1.0,0.3225,1,VH88,0.20620083058389785
9,1.284,0.0,-0.3255,1,VH88,0.24998020526776946
10,1.603,1.0,0.3225,1,VH88,0.47187687362741587
11,1.53,1.0,0.3225,1,VH88,0.4252677354043441
12,1.796,1.0,0.3225,1,VH88,0.5855619698800079
13,1.155,0.0,0.3225,0,VH88,0.14410034397375687
14,1.407,1.0,0.3225,1,VH88,0.34145977813225203
15,1.695,1.0,0.3225,1,VH88,0.5276827408324136
16,1.138,1.0,0.3225,1,VH88,0.1292723357041391
17,1.268,1.0,0.3225,1,VH88,0.23744085601503417
18,1.377,1.0,0.3225,1,VH88,0.3199072197465178
19,1.386,1.0,-0.3255,0,VH88,0.32642190076771144
20,1.126,1.0,0.3225,1,VH88,0.11867152971749854
21,2.747,0.0,0.3225,0,VH88,1.0105094071131369
22,1.173,1.0,0.3225,1,VH88,0.15956456967133845
23,1.124,0.0,-0.3255,1,VH88,0.11689375147149943
24,1.357,1.0,0.3225,1,VH88,0.30527638085273207
25,2.353,0.0,0.3225,0,VH88,0.8556911097452256
26,1.121,1.0,-0.3255,0,VH88,0.11422114409002286
27,1.727,1.0,0.3225,1,VH88,0.5463857991645416
28,1.702,1.0,0.3225,1,VH88,0.5318040301511824
29,1.699,1.0,0.3225,1,VH88,0.530039842689795
30,1.654,0.0,0.3225,0,VH88,0.5031965966014995
31,1.3,1.0,0.3225,1,VH88,0.26236426446749106
32,1.524,0.0,0.3225,0,VH88,0.42133845726445457
33,1.117,1.0,0.3225,1,VH88,0.11064652008706365
34,1.256,1.0,0.3225,1,VH88,0.22793206804600694
35,1.114,1.0,0.3225,1,VH88,0.10795714150509236
36,1.212,1.0,0.3225,1,VH88,0.1922718876471227
37,1.248,0.0,-0.3255,1,VH88,0.22154226994723591
38,1.488,1.0,-0.3255,0,VH88,0.3974329364109001
39,1.097,1.0,0.3225,1,VH88,0.09257918129309317
40,1.255,1.0,0.3225,1,VH88,0.22713557258374711
41,1.767,1.0,0.3225,1,VH88,0.5692831933375593
42,2.108,1.0,0.3225,1,VH88,0.745739630679116
43,2.013,0.0,0.3225,0,VH88,0.6996261466576544
44,1.511,0.0,0.3225,0,VH88,0.41277168329060243
45,1.049,1.0,0.3225,1,VH88,0.04783732941416006
46,1.26,0.0,0.3225,0,VH88,0.23111172096338664
47,1.577,0.0,-0.3255,1,VH88,0.4555243079809013
48,1.126,1.0,0.3225,1,VH88,0.11867152971749854
49,1.253,1.0,0.3225,1,VH88,0.22554067591393115
50,1.258,1.0,0.3225,1,VH88,0.2295231582782488
51,1.843,1.0,-0.3255,0,VH88,0.6113946786876863
52,1.878,0.0,0.3225,0,VH88,0.6302073807860711
53,1.052,1.0,0.3225,1,VH88,0.05069311431551816
54,1.003,0.0,0.3225,0,VH88,0.002995508979798371
55,1.198,1.0,0.3225,1,VH88,0.18065349969325756
56,0.977,1.0,0.3225,1,VH88,-0.02326862693935433
57,1.755,0.0,0.3225,0,VH88,0.5624688569178291
58,1.226,1.0,0.3225,1,VH88,0.20375683751401963
59,1.044,0.0,0.3225,0,VH88,0.04305948946044701
60,1.074,1.0,0.3225,1,VH88,0.071389996086673
61,1.128,0.0,0.3225,0,VH88,0.12044615307586706
62,1.341,1.0,0.3225,1,VH88,0.29341560429954144
63,1.235,0.0,0.3225,0,VH88,0.2110709700799406
64,1.018,1.0,0.3225,1,VH88,0.017839918128331016
65,1.256,1.0,0.3225,1,VH88,0.22793206804600694
66,1.153,1.0,0.3225,1,VH88,0.142367241286922
67,1.221,0.0,0.3225,0,VH88,0.1996701951285677
68,1.743,0.0,0.3225,0,VH88,0.5556077665378839
69,1.445,0.0,-0.3255,1,VH88,0.3681093215643955
70,1.677,0.0,-0.3255,1,VH88,0.5170064828410719
71,1.697,0.0,-0.3255,1,VH88,0.5288619862520894
72,1.257,1.0,0.3225,1,VH88,0.2287279296081103
73,1.747,1.0,0.3225,1,VH88,0.5579000311519196
74,1.032,0.0,0.3225,0,VH88,0.031498667059371016
75,1.267,1.0,0.3225,1,VH88,0.2366519013390019
76,1.7,0.0,0.3225,0,VH88,0.5306282510621704
77,1.752,1.0,0.3225,1,VH88,0.5607579925141997
78,1.258,0.0,0.3225,0,VH88,0.2295231582782488
79,1.196,1.0,-0.3255,0,VH88,0.17898265552843995
80,2.233,1.0,0.3225,1,VH88,0.8033459728580209
81,1.484,1.0,0.3225,1,VH88,0.39474114474518873
82,1.0,0.0,0.3225,0,VH88,0.0
83,1.882,1.0,0.3225,1,VH88,0.6323350411631878
84,1.717,0.0,0.3225,0,VH88,0.5405785819153385
85,1.212,0.0,-0.3255,1,VH88,0.1922718876471227
86,2.15,1.0,-0.3255,0,VH88,0.7654678421395714
87,0.987,0.0,-0.3255,1,VH88,-0.01308523954865548
88,0.996,1.0,0.3225,1,VH88,-0.004008021397538822
89,0.993,0.0,0.3225,0,VH88,-0.007024614936964466
90,1.863,0.0,0.3225,0,VH88,0.6221880916194514
91,1.413,1.0,-0.3255,0,VH88,0.34571510370239045
92,2.299,1.0,0.3225,1,VH88,0.8324742457810445
93,3.052,1.0,0.3225,1,VH88,1.1157971134222107
94,1.425,0.0,0.3225,0,VH88,0.3541718137206139
95,1.192,1.0,0.3225,1,VH88,0.175632568643158
96,1.398,1.0,-0.3255,0,VH88,0.3350426438116184
97,1.031,0.0,0.3225,0,VH88,0.03052920503482279
98,1.139,0.0,0.3225,0,VH88,0.13015068446504507
99,1.744,0.0,0.3225,0,VH88,0.5561813254867879
100,2.011,1.0,0.3225,1,VH88,0.698632110790515
1,1.863,1.0,0.3225,1,VH88,0.6221880916194514
2,0.999,1.0,0.3225,1,VH88,-0.0010005003335835344
3,1.162,1.0,0.3225,1,VH88,0.1501426584297194
4,0.91,1.0,0.3225,1,VH88,-0.09431067947124129
5,0.925,1.0,-0.3255,0,VH88,-0.0779615414697118
6,0.825,1.0,0.3225,1,VH88,-0.1923718926474561
7,0.931,1.0,0.3225,1,VH88,-0.07149600170506992
8,1.057,1.0,0.3225,1,VH88,0.055434706888100524
9,0.944,1.0,-0.3255,0,VH88,-0.057629112836636416
10,1.246,1.0,0.3225,1,VH88,0.2199384203652614
11,1.31,1.0,0.3225,1,VH88,0.2700271372130602
12,1.616,1.0,0.3225,1,VH88,0.4799539600989037
13,1.65,1.0,0.3225,1,VH88,0.5007752879124892
14,1.346,1.0,0.3225,1,VH88,0.2971372312225361
15,1.462,1.0,0.3225,1,VH88,0.37980536132758674
16,1.775,0.0,0.3225,0,VH88,0.5738004229273791
17,1.267,0.0,0.3225,0,VH88,0.2366519013390019
18,1.483,0.0,0.3225,0,VH88,0.3940670631557951
19,1.126,0.0,0.3225,0,VH88,0.11867152971749854
20,1.525,0.0,0.3225,0,VH88,0.4219944100593749
21,1.222,1.0,0.3225,1,VH88,0.20048886074940356
22,1.24,1.0,0.3225,1,VH88,0.2151113796169455
23,1.504,0.0,-0.3255,1,VH88,0.4081282255276481
24,1.714,0.0,-0.3255,1,VH88,0.538829820175588
25,0.937,0.0,0.3225,0,VH88,-0.0650719967437148
26,2.384,1.0,-0.3255,0,VH88,0.8687797492031033
27,2.725,0.0,0.3225,0,VH88,1.0024684281152074
28,1.008,0.0,0.3225,0,VH88,0.00796816964917688
29,1.53,1.0,-0.3255,0,VH88,0.4252677354043441
30,1.021,1.0,0.3225,1,VH88,0.020782539182528415
31,1.2,1.0,0.3225,1,VH88,0.1823215567939546
32,1.196,1.0,0.3225,1,VH88,0.17898265552843995
33,1.435,1.0,0.3225,1,VH88,0.3611648492115844
34,1.3,0.0,0.3225,0,VH88,0.26236426446749106
35,1.159,0.0,-0.3255,1,VH88,0.1475575643576147
36,1.408,1.0,-0.3255,0,VH88,0.3421702577358506
37,1.58,1.0,0.3225,1,VH88,0.4574248470388755
38,1.323,1.0,0.3225,1,VH88,0.27990188513281855
39,1.235,1.0,0.3225,1,VH88,0.2110709700799406
40,1.221,0.0,-0.3255,1,VH88,0.1996701951285677
41,1.658,1.0,0.3225,1,VH88,0.5056120567131032
42,1.362,0.0,-0.3255,1,VH88,0.3089542077273207
43,1.23,0.0,-0.3255,1,VH88,0.20701416938432612
44,1.727,0.0,0.3225,0,VH88,0.5463857991645416
45,2.715,1.0,0.3225,1,VH88,0.9987919533858987
46,1.812,1.0,0.3225,1,VH88,0.5944312076207876
47,1.945,0.0,0.3225,0,VH88,0.6652619770704097
48,1.096,0.0,0.3225,0,VH88,0.09166718852582388
49,1.549,0.0,0.3225,0,VH88,0.4376095614347315
50,2.275,1.0,0.3225,1,VH88,0.8219800524029137
51,1.68,1.0,0.3225,1,VH88,0.5187937934151675
52,1.329,0.0,0.3225,0,VH88,0.28442677973110825
53,1.241,1.0,0.3225,1,VH88,0.21591750622247025
54,1.47,0.0,0.3225,0,VH88,0.3852624007906449
55,1.269,1.0,-0.3255,0,VH88,0.23822918873225055
56,1.936,1.0,0.3225,1,VH88,0.6606239888543852
57,2.359,1.0,0.3225,1,VH88,0.858237800425538
58,2.145,0.0,0.3225,0,VH88,0.7631395523799803
59,1.978,1.0,0.3225,1,VH88,0.6820862332005203
60,3.617,1.0,-0.3255,0,VH88,1.285644952969961
61,1.523,1.0,-0.3255,0,VH88,0.4206820739130247
62,1.807,0.0,0.3225,0,VH88,0.5916680116100914
63,2.018,0.0,-0.3255,1,VH88,0.7021069219314171
64,3.806,1.0,0.3225,1,VH88,1.3365787688739577
65,1.135,0.0,0.3225,0,VH88,0.126632650933366
66,1.527,1.0,0.3225,1,VH88,0.42330502623649535
67,1.314,0.0,0.3225,0,VH88,0.2730759200624188
68,2.118,0.0,0.3225,0,VH88,0.7504722471792147
69,1.486,0.0,0.3225,0,VH88,0.3960879462955674
70,2.97,0.0,0.3225,0,VH88,1.0885619528146082
71,1.667,1.0,0.3225,1,VH88,0.511025603768657
72,2.379,1.0,0.3225,1,VH88,0.8666802313208206
73,1.606,0.0,0.3225,0,VH88,0.47374661552457
74,1.116,0.0,0.3225,0,VH88,0.10975086395911929
75,1.681,1.0,0.3225,1,VH88,0.5193888544264785
76,1.193,0.0,0.3225,0,VH88,0.17647114311577913
77,2.155,1.0,0.3225,1,VH88,0.767790723555711
78,2.333,0.0,0.3225,0,VH88,0.847154993039293
79,1.581,0.0,-0.3255,1,VH88,0.45805755822733496
80,1.964,0.0,-0.3255,1,VH88,0.6749832099322741
81,2.85,1.0,0.3225,1,VH88,1.0473189942805592
82,1.096,0.0,0.3225,0,VH88,0.09166718852582388
83,3.35,0.0,0.3225,0,VH88,1.208960345836975
84,1.986,1.0,0.3225,1,VH88,0.6861225656229808
85,1.578,1.0,0.3225,1,VH88,0.45615822242368254
86,1.606,0.0,0.3225,0,VH88,0.47374661552457
87,1.774,1.0,0.3225,1,VH88,0.5732368838873878
88,2.006,0.0,0.3225,0,VH88,0.6961426895397437
89,1.749,1.0,0.3225,1,VH88,0.559044196036465
90,1.691,0.0,-0.3255,1,VH88,0.5253200699164433
91,2.72,0.0,-0.3255,1,VH88,1.000631880307906
92,2.57,0.0,0.3225,0,VH88,0.9439058989071284
93,1.374,0.0,0.3225,0,VH88,0.31772619380015765
94,1.5,1.0,0.3225,1,VH88,0.4054651081081644
95,1.068,0.0,-0.3255,1,VH88,0.06578774053800315
96,1.881,1.0,0.3225,1,VH88,0.6318035503188933
97,2.755,0.0,0.3225,0,VH88,1.0134174426048779
98,1.032,1.0,0.3225,1,VH88,0.031498667059371016
99,1.912,1.0,0.3225,1,VH88,0.6481498146292095
100,2.09,1.0,0.3225,1,VH88,0.7371640659767196
1,1.075,1.0,-0.3255,0,VH88,0.07232066157962608
2,0.805,1.0,0.3225,1,VH88,-0.2169130015635736
3,0.767,1.0,0.3225,1,VH88,-0.26526847761488087
4,0.797,0.0,-0.3255,1,VH88,-0.226900600191922
5,0.932,1.0,0.3225,1,VH88,-0.07042246429654582
6,0.937,0.0,-0.3255,1,VH88,-0.0650719967437148
7,1.211,1.0,0.3225,1,VH88,0.19144646457095527
8,3.313,0.0,0.3225,0,VH88,1.1978541233177589
9,2.169,0.0,0.3225,0,VH88,0.7742662318447373
10,1.62,1.0,0.3225,1,VH88,0.4824261492442928
11,1.175,0.0,0.3225,0,VH88,0.16126814759612232
12,1.211,1.0,0.3225,1,VH88,0.19144646457095527
13,1.558,0.0,-0.3255,1,VH88,0.4434029474485566
14,2.93,0.0,0.3225,0,VH88,1.075002423028976
15,1.35,1.0,-0.3255,0,VH88,0.30010459245033816
16,1.004,1.0,0.3225,1,VH88,0.003992021269537457
17,1.612,1.0,0.3225,1,VH88,0.4774756440844366
18,1.365,1.0,-0.3255,0,VH88,0.31115442863692305
19,1.398,1.0,-0.3255,0,VH88,0.3350426438116184
20,1.882,1.0,0.3225,1,VH88,0.6323350411631878
21,1.015,0.0,0.3225,0,VH88,0.014888612493750559
22,2.611,1.0,0.3225,1,VH88,0.9597332897169919
23,2.538,1.0,0.3225,1,VH88,0.9313763692921958
24,1.435,1.0,0.3225,1,VH88,0.3611648492115844
25,1.207,1.0,0.3225,1,VH88,0.1881379421153945
26,2.104,1.0,0.3225,1,VH88,0.7438402948754634
27,1.267,0.0,0.3225,0,VH88,0.2366519013390019
28,1.904,1.0,0.3225,1,VH88,0.6439569363691735
29,1.493,0.0,0.3225,0,VH88,0.4007875185570534
30,1.479,1.0,0.3225,1,VH88,0.39136618372866283
31,2.11,1.0,0.3225,1,VH88,0.7466879474879751
32,1.159,0.0,0.3225,0,VH88,0.1475575643576147
33,2.334,1.0,0.3225,1,VH88,0.8475835338643642
34,0.985,0.0,0.3225,0,VH88,-0.015113637810048184
35,2.087,1.0,0.3225,1,VH88,0.7357276280950638
36,1.151,1.0,0.3225,1,VH88,0.14063112973974562
37,1.18,0.0,0.3225,0,VH88,0.16551443847757333
38,1.127,0.0,0.3225,0,VH88,0.11955923505763924
39,1.284,0.0,-0.3255,1,VH88,0.24998020526776946
40,1.444,1.0,-0.3255,0,VH88,0.36741704047063445
41,1.189,0.0,0.3225,0,VH88,0.17311261770864483
42,1.067,1.0,0.3225,1,VH88,0.06485097231961627
43,1.235,1.0,0.3225,1,VH88,0.2110709700799406
44,1.793,1.0,0.3225,1,VH88,0.5838901946229957
45,1.68,0.0,-0.3255,1,VH88,0.5187937934151675
46,1.707,1.0,0.3225,1,VH88,0.5347374438123036
47,1.369,0.0,0.3225,0,VH88,0.3140805463063118
48,1.128,1.0,0.3225,1,VH88,0.12044615307586706
49,1.483,1.0,-0.3255,0,VH88,0.3940670631557951
50,1.399,1.0,0.3225,1,VH88,0.3357576956833441
51,1.162,0.0,0.3225,0,VH88,0.1501426584297194
52,1.812,1.0,0.3225,1,VH88,0.5944312076207876
53,1.712,0.0,0.3225,0,VH88,0.5376622777195503
54,1.984,1.0,0.3225,1,VH88,0.6851150088626811
55,1.336,1.0,0.3225,1,VH88,0.28968007511445404
56,1.504,1.0,0.3225,1,VH88,0.4081282255276481
57,2.894,1.0,0.3225,1,VH88,1.0626396282092923
58,1.34,0.0,0.3225,0,VH88,0.29266961396282004
59,2.674,0.0,0.3225,0,VH88,0.9835754786797514
60,1.887,1.0,0.3225,1,VH88,0.6349882663864131
61,2.467,0.0,0.3225,0,VH88,0.9030028375472197
62,2.233,1.0,0.3225,1,VH88,0.8033459728580209
63,2.036,0.0,0.3225,0,VH88,0.7109870986882764
64,1.358,1.0,-0.3255,0,VH88,0.3060130291365044
65,1.08,1.0,0.3225,1,VH88,0.0769610411361284
66,1.41,1.0,-0.3255,0,VH88,0.34358970439007686
67,1.257,0.0,0.3225,0,VH88,0.2287279296081103
68,1.216,1.0,0.3225,1,VH88,0.19556678354397525
69,1.841,0.0,-0.3255,1,VH88,0.6103089022509408
70,3.432,0.0,-0.3255,1,VH88,1.233143181625716
71,21.385,0.0,0.3225,0,VH88,3.062689741678872
72,1.802,0.0,0.3225,0,VH88,0.5888971591861462
73,0.52,1.0,0.3225,1,VH88,-0.6539264674066639
74,1.168,0.0,0.3225,0,VH88,0.15529288440603525
75,1.089,1.0,0.3225,1,VH88,0.0852598439508234
76,1.23,0.0,0.3225,0,VH88,0.20701416938432612
77,0.94,1.0,-0.3255,0,VH88,-0.06187540371808753
78,0.854,1.0,0.3225,1,VH88,-0.1578240851935672
79,1.049,1.0,0.3225,1,VH88,0.04783732941416006
80,1.169,1.0,0.3225,1,VH88,0.15614868248993138
81,0.954,1.0,0.3225,1,VH88,-0.04709160753385057
82,1.623,0.0,-0.3255,1,VH88,0.48427628853245414
83,0.978,1.0,0.3225,1,VH88,-0.02224560894731974
84,1.416,1.0,0.3225,1,VH88,0.347835995271528
85,1.346,0.0,-0.3255,1,VH88,0.2971372312225361
86,1.258,1.0,0.3225,1,VH88,0.2295231582782488
87,1.216,0.0,0.3225,0,VH88,0.19556678354397525
88,1.058,0.0,-0.3255,1,VH88,0.05638033343610769
89,2.037,1.0,0.3225,1,VH88,0.7114781372446687
90,1.716,0.0,0.3225,0,VH88,0.5399960010657705
91,1.334,1.0,0.3225,1,VH88,0.288181947493432
92,1.234,0.0,0.3225,0,VH88,0.21026092548319605
93,1.297,1.0,0.3225,1,VH88,0.2600539053343068
94,1.384,0.0,0.3225,0,VH88,0.3249778571954777
95,1.296,1.0,0.3225,1,VH88,0.25928259793008296
96,2.402,0.0,0.3225,0,VH88,0.8763017236577919
97,1.177,1.0,0.3225,1,VH88,0.1629688282781397
98,1.695,0.0,0.3225,0,VH88,0.5276827408324136
99,2.577,1.0,0.3225,1,VH88,0.946625931670228
100,4.642,0.0,-0.3255,1,VH88,1.5351453078522455
1,1.22,1.0,0.3225,1,VH88,0.19885085874516514
2,1.653,1.0,-0.3225,0,VH88,0.50259181883888715
3,1.511,1.0,-0.3225,0,VH88,0.41277168329060243
4,1.438,1.0,-0.3225,0,VH88,0.3632532592988549
5,1.208,1.0,0.3225,1,VH88,0.18896609951262316
6,1.235,1.0,-0.3225,0,VH88,0.2110709700799406
7,1.653,1.0,-0.3225,0,VH88,0.50259181883888715
8,2.209,1.0,-0.3225,0,VH88,0.7925399244379802
9,1.636,0.0,-0.3225,1,VH88,0.49225423818055525
10,1.426,0.0,-0.3225,1,VH88,0.35487332199210414
11,1.247,0.0,-0.3225,1,VH88,0.2207406666978995
12,1.28,0.0,-0.3225,1,VH88,0.2468600779315258
13,1.13,1.0,0.3225,1,VH88,0.12221763272424911
14,1.116,0.0,-0.3225,1,VH88,0.10975086395911929
15,0.997,1.0,-0.3225,0,VH88,-0.0030045090202987248
16,0.821,0.0,-0.3225,1,VH88,-0.19723216952970887
17,1.505,1.0,0.3225,1,VH88,0.40879289820083897
18,1.559,1.0,0.3225,1,VH88,0.44404459007563946
19,1.283,0.0,0.3225,0,VH88,0.2492010856334993
20,1.945,1.0,-0.3225,0,VH88,0.6652619770704097
21,1.898,1.0,0.3225,1,VH88,0.640800700187736
22,1.739,1.0,0.3225,1,VH88,0.5533102353721461
23,0.942,0.0,-0.3225,1,VH88,-0.05975000440577405
24,1.37,1.0,0.3225,1,VH88,0.3148107398400336
25,1.931,1.0,0.3225,1,VH88,0.6580380034463774
26,0.932,0.0,0.3225,0,VH88,-0.07042246429654582
27,3.036,0.0,0.3225,0,VH88,1.1105408595333834
28,1.257,0.0,0.3225,0,VH88,0.2287279296081103
29,1.259,1.0,0.3225,1,VH88,0.23031775506221006
30,1.313,1.0,0.3225,1,VH88,0.2723145953206591
31,0.973,1.0,-0.3225,0,VH88,-0.02737119679613201
32,1.06,1.0,0.3225,1,VH88,0.05826890812397583
33,2.161,0.0,-0.3225,1,VH88,0.770571077524749
34,1.451,1.0,-0.3225,0,VH88,0.3722529739020508
35,3.09,0.0,0.3225,0,VH88,1.128171090909654
36,1.256,1.0,-0.3225,0,VH88,0.22793206804600694
37,1.964,1.0,-0.3225,0,VH88,0.6749832099322741
38,1.383,1.0,0.3225,1,VH88,0.32425505268262117
39,1.847,1.0,-0.3225,0,VH88,0.6135627012171029
40,1.747,1.0,0.3225,1,VH88,0.5579000311519196
41,1.376,1.0,0.3225,1,VH88,0.3191807395111519
42,1.314,1.0,-0.3225,0,VH88,0.2730759200624188
43,1.562,0.0,-0.3225,1,VH88,0.44596705141749426
44,1.487,0.0,0.3225,0,VH88,0.3967606674780181
45,1.642,1.0,-0.3225,0,VH88,0.49591501103023644
46,2.449,1.0,0.3225,1,VH88,0.8956797779700306
47,1.527,0.0,-0.3225,1,VH88,0.42330502623649535
48,1.548,1.0,0.3225,1,VH88,0.4369637751675354
49,1.184,0.0,0.3225,0,VH88,0.16889853646181388
50,1.24,1.0,0.3225,1,VH88,0.2151113796169455
51,1.214,1.0,0.3225,1,VH88,0.1939206926373065
52,1.076,1.0,0.3225,1,VH88,0.07325046173959274
53,1.859,0.0,-0.3225,1,VH88,0.620038708739307
54,1.146,1.0,-0.3225,0,VH88,0.13627761829254775
55,1.199,1.0,0.3225,1,VH88,0.18148787604537725
56,1.226,0.0,0.3225,0,VH88,0.20375683751401963
57,1.041,0.0,-0.3225,1,VH88,0.04018178963283176
58,2.039,1.0,0.3225,1,VH88,0.7124594915923183
59,1.9,1.0,-0.3225,0,VH88,0.6418538861723947
60,3.167,1.0,0.3225,1,VH88,1.1527847675565026
61,1.009,0.0,-0.3225,1,VH88,0.008959741371471803
62,1.356,1.0,-0.3225,0,VH88,0.30453918951820386
63,1.92,1.0,0.3225,1,VH88,0.6523251860396901
64,1.534,1.0,0.3225,1,VH88,0.42787870294506447
65,1.464,0.0,-0.3225,1,VH88,0.3811724155391198
66,1.111,0.0,-0.3225,1,VH88,0.10526051065749294
67,1.167,1.0,-0.3225,0,VH88,0.15443635330441896
68,0.934,1.0,0.3225,1,VH88,-0.06827884075329438
69,1.052,1.0,0.3225,1,VH88,0.05069311431551816
70,3.888,1.0,-0.3225,0,VH88,1.3578948865981926
71,1.909,1.0,-0.3225,0,VH88,0.6465795447436106
72,1.356,1.0,0.3225,1,VH88,0.30453918951820386
73,0.995,0.0,-0.3225,1,VH88,-0.005012541823544286
74,1.887,0.0,-0.3225,1,VH88,0.6349882663864131
75,1.894,0.0,0.3225,0,VH88,0.6386909947638865
76,2.36,0.0,-0.3225,1,VH88,0.8586616190375187
77,1.528,1.0,0.3225,1,VH88,0.42395969074432877
78,5.47,0.0,0.3225,0,VH88,1.6992786164338898
79,2.422,1.0,0.3225,1,VH88,0.8845936451309006
80,1.95,1.0,-0.3225,0,VH88,0.6678293725756554
81,2.114,0.0,-0.3225,1,VH88,0.7485818874480459
82,1.083,0.0,-0.3225,1,VH88,0.07973496801885353
83,1.399,0.0,-0.3225,1,VH88,0.3357576956833441
84,2.356,1.0,-0.3225,0,VH88,0.8569652657893402
85,1.742,1.0,-0.3225,0,VH88,0.555033878430311
86,3.422,0.0,0.3225,0,VH88,1.2302251754700018
87,1.518,1.0,-0.3225,0,VH88,0.4173936789734382
88,1.338,1.0,0.3225,1,VH88,0.29117596170603677
89,1.122,1.0,0.3225,1,VH88,0.11511280710050467
90,1.691,1.0,0.3225,1,VH88,0.5253200699164433
91,1.267,1.0,0.3225,1,VH88,0.2366519013390019
92,1.324,1.0,0.3225,1,VH88,0.2806574575148165
93,1.268,1.0,0.3225,1,VH88,0.23744085601503417
94,0.898,0.0,-0.3225,1,VH88,-0.10758521067993743
95,1.156,0.0,-0.3225,1,VH88,0.14496577025018567
96,1.047,1.0,-0.3225,0,VH88,0.045928931888399735
97,2.135,0.0,0.3225,0,VH88,0.7584666466805878
98,1.181,0.0,0.3225,0,VH88,0.1663615372152253
99,1.037,1.0,0.3225,1,VH88,0.036331929247390204
100,2.312,1.0,-0.3225,0,VH88,0.8381129508101309
1,2.495,1.0,0.3225,1,VH88,0.914288729203482
2,2.391,0.0,-0.3225,1,VH88,0.8717116884761876
3,1.003,0.0,0.3225,0,VH88,0.002995508979798371
4,2.142,1.0,-0.3225,0,VH88,0.761739972025557
5,1.499,1.0,-0.3225,0,VH88,0.4047982191204607
6,0.961,1.0,0.3225,1,VH88,-0.0397808700118446
7,0.972,1.0,0.3225,1,VH88,-0.028399474521698
8,1.264,1.0,0.3225,1,VH88,0.2342812957246657
9,2.579,0.0,-0.3225,1,VH88,0.9474017268992078
10,1.223,0.0,0.3225,0,VH88,0.2013068567050354
11,2.048,0.0,-0.3225,1,VH88,0.7168637071772613
12,0.985,0.0,-0.3225,1,VH88,-0.015113637810048184
13,1.179,1.0,-0.3225,0,VH88,0.16466662155523393
14,0.978,1.0,0.3225,1,VH88,-0.02224560894731974
15,2.649,0.0,-0.3225,1,VH88,0.9741822102899327
16,1.505,0.0,-0.3225,1,VH88,0.40879289820083897
17,1.024,0.0,0.3225,0,VH88,0.02371652661731606
18,1.167,1.0,0.3225,1,VH88,0.15443635330441896
19,3.28,1.0,-0.3225,0,VH88,1.1878434223960523
20,0.944,0.0,-0.3225,1,VH88,-0.057629112836636416
21,1.16,0.0,-0.3225,1,VH88,0.14842000511827322
22,0.986,0.0,-0.3225,1,VH88,-0.014098924379501648
23,1.241,1.0,-0.3225,0,VH88,0.21591750622247025
24,1.33,1.0,-0.3225,0,VH88,0.2851789422336624
25,2.23,0.0,-0.3225,1,VH88,0.8020015854720274
26,1.188,1.0,0.3225,1,VH88,0.17227122094045313
27,1.545,1.0,-0.3225,0,VH88,0.4350239103497087
28,2.37,1.0,-0.3225,0,VH88,0.8628899551470398
29,1.352,0.0,-0.3225,1,VH88,0.3015849776207724
30,1.317,1.0,0.3225,1,VH88,0.2753564227611439
31,2.884,0.0,0.3225,0,VH88,1.0591782194227026
32,1.073,0.0,-0.3225,1,VH88,0.07045846364856138
33,1.512,1.0,-0.3225,0,VH88,0.4134332777573413
34,1.903,1.0,-0.3225,0,VH88,0.6434315883140125
35,1.364,0.0,0.3225,0,VH88,0.3104215594212704
36,1.137,1.0,0.3225,1,VH88,0.128393214768399
37,0.956,0.0,0.3225,0,VH88,-0.044997365930735805
38,0.894,1.0,0.3225,1,VH88,-0.11204950380862289
39,1.388,0.0,0.3225,0,VH88,0.32786386208461266
40,1.278,1.0,0.3225,1,VH88,0.2452963559553431
41,1.088,0.0,-0.3225,1,VH88,0.08434114843375096
42,2.698,1.0,0.3225,1,VH88,0.9925107577855641
43,1.239,0.0,0.3225,0,VH88,0.21430460264700546
44,3.267,1.0,0.3225,1,VH88,1.183872132618933
45,1.421,1.0,0.3225,1,VH88,0.3513608491149636
46,1.11,1.0,0.3225,1,VH88,0.10436001532424286
47,1.191,1.0,0.3225,1,VH88,0.1747932903731631
48,1.233,1.0,-0.3225,0,VH88,0.20945022418220732
49,1.028,1.0,0.3225,1,VH88,0.02761516703297339
50,1.495,0.0,-0.3225,1,VH88,0.4021262068426498
51,1.199,1.0,0.3225,1,VH88,0.18148787604537725
52,1.249,0.0,0.3225,0,VH88,0.2223432311434407
53,1.077,0.0,0.3225,0,VH88,0.07417939817425147
54,1.273,1.0,0.3225,1,VH88,0.2413763195752694
55,0.968,0.0,0.3225,0,VH88,-0.03252319170556007
56,1.301,1.0,-0.3225,0,VH88,0.2631331995303682
57,1.027,1.0,0.3225,1,VH88,0.026641930946421092
58,1.281,1.0,0.3225,1,VH88,0.2476410229145971
59,1.211,0.0,-0.3225,1,VH88,0.19144646457095527
60,1.733,0.0,0.3225,0,VH88,0.5498540107334691
61,1.73,1.0,0.3225,1,VH88,0.5481214085096876
62,1.199,0.0,0.3225,0,VH88,0.18148787604537725
63,1.322,1.0,-0.3225,0,VH88,0.2791457414294946
64,1.427,0.0,-0.3225,1,VH88,0.3555743384946994
65,1.314,1.0,0.3225,1,VH88,0.2730759200624188
66,1.109,0.0,-0.3225,1,VH88,0.10345870836822997
67,1.181,1.0,-0.3225,0,VH88,0.1663615372152253
68,3.897,1.0,0.3225,1,VH88,1.3602070263565722
69,1.603,1.0,0.3225,1,VH88,0.47187687362741587
70,1.183,1.0,0.3225,1,VH88,0.16805358499624976
71,0.891,1.0,-0.3225,0,VH88,-0.11541085151132773
72,1.906,1.0,0.3225,1,VH88,0.6450068052320104
73,1.168,0.0,-0.3225,1,VH88,0.15529288440603525
74,0.884,0.0,-0.3225,1,VH88,-0.1232982163444936
75,1.36,0.0,0.3225,0,VH88,0.3074846997479607
76,1.111,1.0,0.3225,1,VH88,0.10526051065749294
77,1.146,1.0,-0.3225,0,VH88,0.13627761829254775
78,1.51,1.0,-0.3225,0,VH88,0.412109650826833
79,1.021,0.0,-0.3225,1,VH88,0.020782539182528415
80,0.862,0.0,0.3225,0,VH88,-0.14850000831844395
81,1.275,1.0,0.3225,1,VH88,0.2429461786103894
82,2.323,0.0,0.3225,0,VH88,0.8428594537882721
83,1.461,1.0,0.3225,1,VH88,0.37912113276856246
84,1.179,0.0,0.3225,0,VH88,0.16466662155523393
85,0.89,0.0,-0.3225,1,VH88,-0.11653381625595151
86,1.257,1.0,0.3225,1,VH88,0.2287279296081103
87,1.0,0.0,-0.3225,1,VH88,0.0
88,1.275,1.0,0.3225,1,VH88,0.2429461786103894
89,1.576,1.0,-0.3225,0,VH88,0.4548899914356874
90,0.927,0.0,-0.3225,1,VH88,-0.07580171341628185
91,1.192,0.0,-0.3225,1,VH88,0.175632568643158
92,1.147,0.0,-0.3225,1,VH88,0.13714983814723367
93,3.526,0.0,-0.3225,1,VH88,1.2601640839756785
94,2.693,1.0,-0.3225,0,VH88,0.9906558138294619
95,1.293,0.0,-0.3225,1,VH88,0.2569650997897204
96,1.713,1.0,-0.3225,0,VH88,0.5382462193419829
97,2.234,0.0,-0.3225,1,VH88,0.803793700647009
98,0.991,1.0,0.3225,1,VH88,-0.00904074465214907
99,2.036,1.0,-0.3225,0,VH88,0.7109870986882764
100,1.333,1.0,-0.3225,0,VH88,0.28743204119657156
1,1.453,0.0,-0.3225,1,RA90,0.3736303845881459
2,1.101,1.0,0.3225,1,RA90,0.0962188577405429
3,1.075,1.0,0.3225,1,RA90,0.07232066157962608
4,1.203,1.0,0.3225,1,RA90,0.18481843699254188
5,0.98,1.0,0.3225,1,RA90,-0.02020270731751947
6,1.159,0.0,0.3225,0,RA90,0.1475575643576147
7,1.086,0.0,0.3225,0,RA90,0.08250122151174376
8,0.988,1.0,0.3225,1,RA90,-0.012072581234269249
9,1.024,1.0,0.3225,1,RA90,0.02371652661731606
10,1.503,0.0,-0.3225,1,RA90,0.40746311077083736
11,1.378,0.0,0.3225,0,RA90,0.3206331725914668
12,1.415,1.0,0.3225,1,RA90,0.34712953109520095
13,1.05,1.0,0.3225,1,RA90,0.04879016416943204
14,1.949,0.0,0.3225,0,RA90,0.6673164205254238
15,1.093,1.0,0.3225,1,RA90,0.08892620919440149
16,1.667,0.0,0.3225,0,RA90,0.511025603768657
17,1.567,0.0,0.3225,0,RA90,0.44916296337388373
18,1.756,1.0,0.3225,1,RA90,0.5630384952129249
19,1.336,1.0,0.3225,1,RA90,0.28968007511445404
20,1.083,0.0,-0.3225,1,RA90,0.07973496801885353
21,1.204,0.0,-0.3225,1,RA90,0.18564934688662926
22,1.377,1.0,0.3225,1,RA90,0.3199072197465178
23,1.313,0.0,0.3225,0,RA90,0.2723145953206591
24,1.399,0.0,0.3225,0,RA90,0.3357576956833441
25,1.437,0.0,0.3225,0,RA90,0.36255760709688795
26,1.269,0.0,0.3225,0,RA90,0.23822918873225055
27,1.124,0.0,-0.3225,1,RA90,0.11689375147149943
28,2.085,0.0,0.3225,0,RA90,0.7347688552507647
29,1.417,0.0,0.3225,0,RA90,0.34854196070854343
30,2.076,0.0,-0.3225,1,RA90,0.7304429653036423
31,1.174,0.0,-0.3225,1,RA90,0.16041672140590466
32,1.72,0.0,0.3225,0,RA90,0.5423242908253617
33,1.449,0.0,0.3225,0,RA90,0.3708736633385453
34,1.485,1.0,0.3225,1,RA90,0.395414772254663
35,1.65,0.0,0.3225,0,RA90,0.5007752879124892
36,1.571,1.0,0.3225,1,RA90,0.4517123592734841
37,2.553,0.0,0.3225,0,RA90,0.9372691382593468
38,1.155,0.0,-0.3225,1,RA90,0.14410034397375687
39,1.099,1.0,0.3225,1,RA90,0.09440067542148428
40,1.118,1.0,0.3225,1,RA90,0.11154137473290751
41,1.158,1.0,0.3225,1,RA90,0.14669437915080344
42,1.501,1.0,0.3225,1,RA90,0.40613155265132483
43,1.836,1.0,0.3225,1,RA90,0.6075892921982987
44,1.583,1.0,0.3225,1,RA90,0.4593217808988751
45,1.151,1.0,-0.3225,0,RA90,0.14063112973974562
46,1.65,1.0,0.3225,1,RA90,0.5007752879124892
47,1.105,0.0,0.3225,0,RA90,0.09984533496971613
48,1.032,0.0,0.3225,0,RA90,0.031498667059371016
49,1.648,1.0,0.3225,1,RA90,0.4995624314872799
50,2.053,0.0,-0.3225,1,RA90,0.7193021380367964
51,1.084,1.0,0.3225,1,RA90,0.08065790301745453
52,0.943,0.0,-0.3225,1,RA90,-0.05868899634867961
53,0.906,1.0,0.3225,1,RA90,-0.0987159729391577
54,1.031,1.0,-0.3225,0,RA90,0.03052920503482279
55,1.112,1.0,0.3225,1,RA90,0.10616019582839073
56,1.224,1.0,0.3225,1,RA90,0.20212418409013433
57,1.219,1.0,0.3225,1,RA90,0.19803085049913455
58,1.403,1.0,0.3225,1,RA90,0.33861280112032394
59,1.646,0.0,0.3225,0,RA90,0.498348102254878
60,1.159,1.0,0.3225,1,RA90,0.1475575643576147
61,1.585,1.0,0.3225,1,RA90,0.46058440732924394
62,1.14,1.0,0.3225,1,RA90,0.131028262406404
63,1.085,1.0,0.3225,1,RA90,0.08157998699242285
64,1.413,1.0,0.3225,1,RA90,0.34571510370239045
65,1.264,0.0,-0.3225,1,RA90,0.2342812957246657
66,1.389,1.0,0.3225,1,RA90,0.3285840637722067
67,1.642,1.0,0.3225,1,RA90,0.49591501103023644
68,1.54,1.0,0.3225,1,RA90,0.43178241642553783
69,1.934,1.0,0.3225,1,RA90,0.6595903970311026
70,1.113,0.0,-0.3225,1,RA90,0.10705907229340778
71,1.931,1.0,0.3225,1,RA90,0.6580380034463774
72,1.528,0.0,-0.3225,1,RA90,0.42395969074432877
73,1.272,1.0,0.3225,1,RA90,0.24059046491793043
74,1.166,0.0,0.3225,0,RA90,0.15357908792830058
75,1.848,0.0,0.3225,0,RA90,0.6141039732194925
76,1.43,1.0,0.3225,1,RA90,0.3576744442718159
77,1.09,0.0,-0.3225,1,RA90,0.08617769624105241
78,1.095,1.0,0.3225,1,RA90,0.09075436326846412
79,2.096,0.0,0.3225,0,RA90,0.7400307664587957
80,1.519,0.0,0.3225,0,RA90,0.41805222361363575
81,1.997,0.0,0.3225,0,RA90,0.6916460544336782
82,1.57,0.0,-0.3225,1,RA90,0.45107561936021673
83,1.634,1.0,0.3225,1,RA90,0.49103099643781106
84,2.267,0.0,0.3225,0,RA90,0.8184573715253919
85,2.194,1.0,0.3225,1,RA90,0.7857263618530385
86,1.512,1.0,0.3225,1,RA90,0.4134332777573413
87,1.684,0.0,0.3225,0,RA90,0.521171915820135
88,1.252,1.0,0.3225,1,RA90,0.22474227267790678
89,1.203,1.0,0.3225,1,RA90,0.18481843699254188
90,1.966,1.0,0.3225,1,RA90,0.6760010217249748
91,1.492,0.0,-0.3225,1,RA90,0.4001175017815691
92,1.24,0.0,-0.3225,1,RA90,0.2151113796169455
93,1.053,0.0,0.3225,0,RA90,0.05164323315183839
94,1.763,1.0,0.3225,1,RA90,0.5670169034157331
95,2.104,1.0,0.3225,1,RA90,0.7438402948754634
96,2.942,0.0,-0.3225,1,RA90,1.0790896221792459
97,1.431,1.0,0.3225,1,RA90,0.3583735005743139
98,1.712,1.0,0.3225,1,RA90,0.5376622777195503
99,1.502,0.0,0.3225,0,RA90,0.406797553341943
100,2.08,0.0,0.3225,0,RA90,0.7323678937132266
1,2.04,1.0,0.3225,1,RA90,0.712949807856125
2,1.168,1.0,0.3225,1,RA90,0.15529288440603525
3,1.041,1.0,0.3225,1,RA90,0.04018178963283176
4,1.121,1.0,0.3225,1,RA90,0.11422114409002286
5,1.112,0.0,0.3225,0,RA90,0.10616019582839073
6,1.231,1.0,0.3225,1,RA90,0.20782684720231653
7,1.452,1.0,0.3225,1,RA90,0.3729419164026043
8,1.317,1.0,0.3225,1,RA90,0.2753564227611439
9,0.854,1.0,0.3225,1,RA90,-0.1578240851935672
10,1.051,1.0,0.3225,1,RA90,0.04974209189481401
11,1.448,1.0,0.3225,1,RA90,0.3701832939635246
12,1.355,1.0,0.3225,1,RA90,0.3038014543316642
13,1.007,1.0,0.3225,1,RA90,0.006975613736425137
14,1.348,1.0,0.3225,1,RA90,0.2986220124901154
15,1.842,1.0,-0.3225,0,RA90,0.6108519378331152
16,1.529,1.0,-0.3225,0,RA90,0.4246139269469252
17,1.921,0.0,0.3225,0,RA90,0.6528458837864196
18,1.946,1.0,0.3225,1,RA90,0.6657759837638133
19,1.763,0.0,0.3225,0,RA90,0.5670169034157331
20,1.202,1.0,0.3225,1,RA90,0.18398683611301578
21,1.007,1.0,0.3225,1,RA90,0.006975613736425137
22,1.472,1.0,0.3225,1,RA90,0.38662202030668447
23,1.421,1.0,0.3225,1,RA90,0.3513608491149636
24,1.241,0.0,-0.3225,1,RA90,0.21591750622247025
25,1.304,0.0,-0.3225,1,RA90,0.26543646350446126
26,1.129,0.0,0.3225,0,RA90,0.12133228516752496
27,1.444,0.0,0.3225,0,RA90,0.36741704047063445
28,2.216,0.0,0.3225,0,RA90,0.7957037688850375
29,1.842,0.0,0.3225,0,RA90,0.6108519378331152
30,2.293,0.0,0.3225,0,RA90,0.8298610038757674
31,1.713,1.0,0.3225,1,RA90,0.5382462193419829
32,1.652,0.0,-0.3225,1,RA90,0.5019866750987863
33,1.129,1.0,0.3225,1,RA90,0.12133228516752496
34,1.486,0.0,0.3225,0,RA90,0.3960879462955674
35,2.377,0.0,0.3225,0,RA90,0.8658391883780567
36,1.111,0.0,-0.3225,1,RA90,0.10526051065749294
37,1.036,0.0,0.3225,0,RA90,0.035367143837291344
38,1.538,1.0,-0.3225,0,RA90,0.43048287108345223
39,1.13,1.0,0.3225,1,RA90,0.12221763272424911
40,1.368,0.0,0.3225,0,RA90,0.31334981920035876
41,1.077,0.0,-0.3225,1,RA90,0.07417939817425147
42,1.326,0.0,0.3225,0,RA90,0.2821668917636708
43,2.013,0.0,0.3225,0,RA90,0.6996261466576544
44,1.489,1.0,0.3225,1,RA90,0.39810475370187204
45,1.771,1.0,0.3225,1,RA90,0.5715443588006964
46,2.565,0.0,0.3225,0,RA90,0.9419584786227329
47,1.973,1.0,0.3225,1,RA90,0.6795552270404783
48,1.614,0.0,0.3225,0,RA90,0.4787155698477571
49,1.266,1.0,0.3225,1,RA90,0.23586232372198446
50,1.77,0.0,0.3225,0,RA90,0.5709795465857378
51,1.439,1.0,0.3225,1,RA90,0.3639484279052308
52,1.416,0.0,-0.3225,1,RA90,0.347835995271528
53,1.577,0.0,0.3225,0,RA90,0.4555243079809013
54,1.412,1.0,0.3225,1,RA90,0.34500713907105024
55,1.745,0.0,0.3225,0,RA90,0.5567545556543906
56,1.292,1.0,0.3225,1,RA90,0.2561914053604102
57,1.628,1.0,-0.3225,0,RA90,0.4873522675803485
58,1.225,0.0,0.3225,0,RA90,0.20294084399669038
59,1.622,1.0,0.3225,1,RA90,0.48365995569322123
60,1.403,1.0,0.3225,1,RA90,0.33861280112032394
61,1.772,0.0,-0.3225,1,RA90,0.5721088521828892
62,1.255,1.0,0.3225,1,RA90,0.22713557258374711
63,1.099,0.0,-0.3225,1,RA90,0.09440067542148428
64,1.131,0.0,0.3225,0,RA90,0.1231021971339834
65,2.017,0.0,-0.3225,1,RA90,0.7016112589720747
66,1.239,0.0,0.3225,0,RA90,0.21430460264700546
67,1.31,1.0,0.3225,1,RA90,0.2700271372130602
68,1.385,1.0,0.3225,1,RA90,0.32570013963930183
69,2.856,1.0,0.3225,1,RA90,1.049422044477338
70,1.875,1.0,-0.3225,0,RA90,0.6286086594223741
71,1.088,0.0,-0.3225,1,RA90,0.08434114843375096
72,1.183,1.0,0.3225,1,RA90,0.16805358499624976
73,1.347,1.0,0.3225,1,RA90,0.2978798974282269
74,1.336,1.0,0.3225,1,RA90,0.28968007511445404
75,1.054,0.0,-0.3225,1,RA90,0.052592450119170624
76,1.032,1.0,0.3225,1,RA90,0.031498667059371016
77,2.067,1.0,-0.3225,0,RA90,0.7260982806996313
78,2.21,0.0,-0.3225,1,RA90,0.7929925155296614
79,1.387,1.0,0.3225,1,RA90,0.32714314133269456
80,1.489,0.0,0.3225,0,RA90,0.39810475370187204
81,1.261,1.0,0.3225,1,RA90,0.2319050569827824
82,1.331,1.0,0.3225,1,RA90,0.2859305394129745
83,1.302,0.0,0.3225,0,RA90,0.26390154378637753
84,2.053,1.0,0.3225,1,RA90,0.7193021380367964
85,1.595,1.0,0.3225,1,RA90,0.4668737362368079
86,2.57,1.0,-0.3225,0,RA90,0.9439058989071284
87,1.135,1.0,0.3225,1,RA90,0.126632650933366
88,1.345,0.0,0.3225,0,RA90,0.2963940130538024
89,1.053,1.0,0.3225,1,RA90,0.05164323315183839
90,1.749,0.0,0.3225,0,RA90,0.559044196036465
91,2.045,0.0,-0.3225,1,RA90,0.7153977894947651
92,1.828,1.0,0.3225,1,RA90,0.6032224730319583
93,2.046,1.0,0.3225,1,RA90,0.7158866675294346
94,2.011,0.0,0.3225,0,RA90,0.698632110790515
95,2.068,0.0,0.3225,0,RA90,0.7265819566461827
96,2.173,0.0,0.3225,0,RA90,0.7761087012742927
97,1.884,1.0,0.3225,1,RA90,0.6333971761541712
98,1.999,1.0,0.3225,1,RA90,0.6926470555182631
99,1.968,1.0,0.3225,1,RA90,0.6770177986300616
100,2.548,1.0,0.3225,1,RA90,0.935308737709917
1,7.705,1.0,0.3225,1,RA90,2.041869468772079
2,2.19,0.0,0.3225,0,RA90,0.7839015438284094
3,1.077,1.0,0.3225,1,RA90,0.07417939817425147
4,1.016,0.0,-0.3225,1,RA90,0.015873349156290163
5,1.103,0.0,-0.3225,1,RA90,0.0980337402713654
6,1.144,1.0,0.3225,1,RA90,0.13453089295760606
7,1.386,0.0,0.3225,0,RA90,0.32642190076771144
8,1.695,0.0,-0.3225,1,RA90,0.5276827408324136
9,1.518,1.0,0.3225,1,RA90,0.4173936789734382
10,1.378,1.0,0.3225,1,RA90,0.3206331725914668
11,1.366,0.0,0.3225,0,RA90,0.3118867611485984
12,1.684,0.0,0.3225,0,RA90,0.521171915820135
13,2.063,1.0,-0.3225,0,RA90,0.7241612340891148
14,1.013,1.0,0.3225,1,RA90,0.01291622526654623
15,1.217,1.0,-0.3225,0,RA90,0.19638881400539018
16,0.994,1.0,0.3225,1,RA90,-0.006018072325563022
17,1.219,0.0,0.3225,0,RA90,0.19803085049913455
18,0.976,1.0,0.3225,1,RA90,-0.024292692569044587
19,1.037,1.0,0.3225,1,RA90,0.036331929247390204
20,0.994,1.0,0.3225,1,RA90,-0.006018072325563022
21,1.802,1.0,0.3225,1,RA90,0.5888971591861462
22,2.212,0.0,0.3225,0,RA90,0.7938970836600885
23,2.142,1.0,0.3225,1,RA90,0.761739972025557
24,1.817,0.0,0.3225,0,RA90,0.5971867894140341
25,1.618,0.0,0.3225,0,RA90,0.48119081863630003
26,1.304,1.0,0.3225,1,RA90,0.26543646350446126
27,1.655,0.0,0.3225,0,RA90,0.5038010088290262
28,1.116,1.0,0.3225,1,RA90,0.10975086395911929
29,0.981,1.0,0.3225,1,RA90,-0.019182819416773984
30,0.966,1.0,0.3225,1,RA90,-0.03459144476961908
31,1.1,0.0,0.3225,0,RA90,0.09531017980432493
32,1.141,0.0,-0.3225,1,RA90,0.1319050708799386
33,2.332,0.0,-0.3225,1,RA90,0.8467262684882458
34,2.116,0.0,0.3225,0,RA90,0.749527513996053
35,1.333,0.0,0.3225,0,RA90,0.28743204119657156
36,1.306,1.0,0.3225,1,RA90,0.26696903085423934
37,1.225,1.0,0.3225,1,RA90,0.20294084399669038
38,0.893,1.0,0.3225,1,RA90,-0.11316869810563798
39,1.266,1.0,0.3225,1,RA90,0.23586232372198446
40,1.148,0.0,-0.3225,1,RA90,0.1380212978973746
41,1.481,1.0,0.3225,1,RA90,0.3927175352856618
42,2.924,1.0,0.3225,1,RA90,1.072952541887532
43,1.191,0.0,0.3225,0,RA90,0.1747932903731631
44,1.168,1.0,0.3225,1,RA90,0.15529288440603525
45,1.395,0.0,0.3225,0,RA90,0.33289441527332897
46,0.999,1.0,-0.3225,0,RA90,-0.0010005003335835344
47,1.801,1.0,-0.3225,0,RA90,0.588342066193819
48,1.303,1.0,0.3225,1,RA90,0.264669298142708
49,1.509,1.0,0.3225,1,RA90,0.41144717978571177
50,1.486,1.0,0.3225,1,RA90,0.3960879462955674
51,2.054,1.0,0.3225,1,RA90,0.7197891115063664
52,1.597,1.0,0.3225,1,RA90,0.4681268692328754
53,1.727,1.0,0.3225,1,RA90,0.5463857991645416
54,2.567,0.0,-0.3225,1,RA90,0.9427379018890034
55,1.374,0.0,-0.3225,1,RA90,0.31772619380015765
56,1.276,0.0,0.3225,0,RA90,0.24373018492259818
57,1.732,1.0,0.3225,1,RA90,0.5492768101402434
58,1.91,0.0,0.3225,0,RA90,0.6471032420585384
59,1.16,1.0,0.3225,1,RA90,0.14842000511827322
60,2.854,0.0,0.3225,0,RA90,1.0487215190546446
61,1.214,0.0,-0.3225,1,RA90,0.1939206926373065
62,1.666,0.0,-0.3225,1,RA90,0.5104255437446509
63,1.103,0.0,-0.3225,1,RA90,0.0980337402713654
64,1.432,0.0,-0.3225,1,RA90,0.3590720685384538
65,1.662,1.0,0.3225,1,RA90,0.5080216964332565
66,1.403,1.0,0.3225,1,RA90,0.33861280112032394
67,1.507,0.0,-0.3225,1,RA90,0.4101209196443583
68,1.303,1.0,0.3225,1,RA90,0.264669298142708
69,1.129,1.0,0.3225,1,RA90,0.12133228516752496
70,2.085,1.0,0.3225,1,RA90,0.7347688552507647
71,1.996,1.0,0.3225,1,RA90,0.6911451778892722
72,1.413,1.0,0.3225,1,RA90,0.34571510370239045
73,1.37,1.0,0.3225,1,RA90,0.3148107398400336
74,2.185,1.0,0.3225,1,RA90,0.7816158285475535
75,2.43,1.0,0.3225,1,RA90,0.8878912573524571
76,2.648,1.0,0.3225,1,RA90,0.9738046380747618
77,2.092,1.0,0.3225,1,RA90,0.7381205462026765
78,2.08,0.0,0.3225,0,RA90,0.7323678937132266
79,1.293,1.0,0.3225,1,RA90,0.2569650997897204
80,1.664,1.0,0.3225,1,RA90,0.5092243423990168
81,1.276,1.0,0.3225,1,RA90,0.24373018492259818
82,1.64,1.0,0.3225,1,RA90,0.494696241836107
83,1.966,1.0,0.3225,1,RA90,0.6760010217249748
84,1.806,1.0,0.3225,1,RA90,0.5911144549947938
85,1.909,0.0,0.3225,0,RA90,0.6465795447436106
86,1.498,0.0,0.3225,0,RA90,0.40413088509502776
87,1.584,0.0,0.3225,0,RA90,0.4599532933922342
88,1.817,0.0,0.3225,0,RA90,0.5971867894140341
89,2.738,0.0,0.3225,0,RA90,1.007227726866257
90,2.115,0.0,-0.3225,1,RA90,0.7490548124982414
91,1.361,0.0,0.3225,0,RA90,0.30821972366932904
92,1.978,0.0,0.3225,0,RA90,0.6820862332005203
93,2.668,1.0,-0.3225,0,RA90,0.9813291280533774
94,1.729,1.0,0.3225,1,RA90,0.5475432067011535
95,1.669,0.0,0.3225,0,RA90,0.5122246446796981
96,1.231,1.0,0.3225,1,RA90,0.20782684720231653
97,1.998,1.0,0.3225,1,RA90,0.6921466802263617
98,2.634,1.0,-0.3225,0,RA90,0.9685036033210893
99,2.198,1.0,0.3225,1,RA90,0.7875478559814296
100,2.166,1.0,0.3225,1,RA90,0.7728821485787989
1,2.36,0.0,0.3225,0,RA90,0.8586616190375187
2,1.405,0.0,-0.3225,1,RA90,0.3400373027857091
3,1.406,0.0,0.3225,0,RA90,0.3407487933884731
4,1.389,1.0,-0.3225,0,RA90,0.3285840637722067
5,1.087,0.0,-0.3225,1,RA90,0.08342160813907236
6,1.467,0.0,0.3225,0,RA90,0.3832194991608447
7,1.308,0.0,0.3225,0,RA90,0.268499253035007
8,2.178,0.0,0.3225,0,RA90,0.7784070245107687
9,1.335,1.0,0.3225,1,RA90,0.28893129185221283
10,1.557,0.0,-0.3225,1,RA90,0.44276089285186127
11,1.358,0.0,-0.3225,1,RA90,0.3060130291365044
12,2.084,1.0,-0.3225,0,RA90,0.7342891238911206
13,2.119,1.0,-0.3225,0,RA90,0.7509442792861621
14,1.845,1.0,0.3225,1,RA90,0.6124792774924905
15,2.759,0.0,0.3225,0,RA90,1.014868295235149
16,1.534,1.0,0.3225,1,RA90,0.42787870294506447
17,1.231,0.0,-0.3225,1,RA90,0.20782684720231653
18,1.036,1.0,0.3225,1,RA90,0.035367143837291344
19,1.345,1.0,0.3225,1,RA90,0.2963940130538024
20,1.091,0.0,-0.3225,1,RA90,0.08709470685093373
21,1.428,1.0,0.3225,1,RA90,0.3562748639173926
22,1.99,1.0,-0.3225,0,RA90,0.688134638736401
23,2.48,1.0,0.3225,1,RA90,0.9082585601768908
24,1.44,1.0,0.3225,1,RA90,0.36464311358790924
25,1.311,1.0,-0.3225,0,RA90,0.27079020478156274
26,2.021,1.0,0.3225,1,RA90,0.7035924384214839
27,1.96,1.0,0.3225,1,RA90,0.6729444732424258
28,1.183,0.0,-0.3225,1,RA90,0.16805358499624976
29,1.646,0.0,-0.3225,1,RA90,0.498348102254878
30,1.029,0.0,-0.3225,1,RA90,0.028587456851912472
31,2.008,0.0,0.3225,0,RA90,0.6971392018294827
32,2.071,0.0,0.3225,0,RA90,0.7280315824134472
33,1.334,0.0,0.3225,0,RA90,0.288181947493432
34,2.156,1.0,0.3225,1,RA90,0.7682546530467508
35,1.47,0.0,-0.3225,1,RA90,0.3852624007906449
36,1.487,0.0,-0.3225,1,RA90,0.3967606674780181
37,1.155,0.0,-0.3225,1,RA90,0.14410034397375687
38,1.263,0.0,-0.3225,1,RA90,0.233489843368354
39,1.62,0.0,0.3225,0,RA90,0.4824261492442928
40,1.703,0.0,0.3225,0,RA90,0.5323914016805513
41,1.369,0.0,-0.3225,1,RA90,0.3140805463063118
42,1.211,1.0,0.3225,1,RA90,0.19144646457095527
43,1.698,0.0,0.3225,0,RA90,0.5294510878891555
44,1.173,1.0,-0.3225,0,RA90,0.15956456967133845
45,1.729,1.0,0.3225,1,RA90,0.5475432067011535
46,1.135,0.0,-0.3225,1,RA90,0.126632650933366
47,1.321,1.0,0.3225,1,RA90,0.2783890255401882
48,1.832,1.0,-0.3225,0,RA90,0.6054082662519386
49,1.359,1.0,0.3225,1,RA90,0.30674913516900665
50,1.911,0.0,0.3225,0,RA90,0.647626665258136
51,1.408,1.0,0.3225,1,RA90,0.3421702577358506
52,1.212,1.0,-0.3225,0,RA90,0.1922718876471227
53,1.433,1.0,0.3225,1,RA90,0.35977014884603487
54,1.283,0.0,-0.3225,1,RA90,0.2492010856334993
55,2.346,0.0,-0.3225,1,RA90,0.8527117502312838
56,1.888,0.0,-0.3225,1,RA90,0.6355180677233089
57,2.115,1.0,0.3225,1,RA90,0.7490548124982414
58,2.662,0.0,-0.3225,1,RA90,0.9790777199729198
59,1.982,1.0,0.3225,1,RA90,0.6841064359077962
60,1.725,1.0,0.3225,1,RA90,0.5452270504833231
61,1.777,1.0,-0.3225,0,RA90,0.5749265491725142
62,2.019,1.0,0.3225,1,RA90,0.7026023393307005
63,2.21,0.0,0.3225,0,RA90,0.7929925155296614
64,2.184,0.0,-0.3225,1,RA90,0.7811580578826587
65,1.426,1.0,-0.3225,0,RA90,0.35487332199210414
66,1.114,0.0,-0.3225,1,RA90,0.10795714150509236
67,1.958,1.0,-0.3225,0,RA90,0.6719235441083187
68,1.252,0.0,-0.3225,1,RA90,0.22474227267790678
69,1.669,1.0,0.3225,1,RA90,0.5122246446796981
70,2.252,1.0,-0.3225,0,RA90,0.8118187102774439
71,0.89,0.0,0.3225,0,RA90,-0.11653381625595151
72,1.742,1.0,-0.3225,0,RA90,0.555033878430311
73,2.142,0.0,-0.3225,1,RA90,0.761739972025557
74,1.813,0.0,-0.3225,1,RA90,0.594982931772714
75,1.611,1.0,-0.3225,0,RA90,0.47685510419483734
76,1.967,1.0,0.3225,1,RA90,0.676509539406922
77,2.07,0.0,-0.3225,1,RA90,0.7275486072772777
78,1.8,1.0,-0.3225,0,RA90,0.5877866649021191
79,2.049,0.0,-0.3225,1,RA90,0.7173518692567626
80,3.062,0.0,0.3225,0,RA90,1.119068297235492
81,1.232,1.0,0.3225,1,RA90,0.208638865111328
82,1.351,1.0,0.3225,1,RA90,0.3008450589780618
83,1.3,0.0,-0.3225,1,RA90,0.26236426446749106
84,1.283,1.0,0.3225,1,RA90,0.2492010856334993
85,1.871,1.0,-0.3225,0,RA90,0.6264730472919525
86,2.288,0.0,0.3225,0,RA90,0.8276780735175514
87,2.603,0.0,0.3225,0,RA90,0.9566646260124284
88,1.81,0.0,-0.3225,1,RA90,0.5933268452777344
89,2.098,1.0,0.3225,1,RA90,0.7409845099741054
90,1.592,0.0,0.3225,0,RA90,0.4649910874221913
91,1.058,0.0,-0.3225,1,RA90,0.05638033343610769
92,1.704,0.0,-0.3225,1,RA90,0.532978428407124
93,1.139,0.0,-0.3225,1,RA90,0.13015068446504507
94,1.466,1.0,0.3225,1,RA90,0.3825376034644597
95,1.447,0.0,-0.3225,1,RA90,0.36949244764934686
96,2.128,1.0,0.3225,1,RA90,0.755182571479398
97,1.436,1.0,-0.3225,0,RA90,0.3618614706260324
98,1.999,0.0,0.3225,0,RA90,0.6926470555182631
99,1.881,0.0,-0.3225,1,RA90,0.6318035503188933
100,1.282,1.0,0.3225,1,RA90,0.24842135849847832
1,1.588,1.0,-0.3225,0,RA90,0.462475362824944
2,1.924,0.0,-0.3225,1,RA90,0.6544063522435147
3,1.181,1.0,0.3225,1,RA90,0.1663615372152253
4,2.006,1.0,0.3225,1,RA90,0.6961426895397437
5,2.239,0.0,-0.3225,1,RA90,0.8060293376166178
6,1.419,0.0,0.3225,0,RA90,0.34995239817790563
7,1.271,0.0,-0.3225,1,RA90,0.23980399220731693
8,1.456,0.0,0.3225,0,RA90,0.3756929497744942
9,1.446,1.0,-0.3225,0,RA90,0.36880112373657287
10,1.983,1.0,-0.3225,0,RA90,0.6846108495376589
11,1.578,1.0,0.3225,1,RA90,0.45615822242368254
12,1.424,1.0,-0.3225,0,RA90,0.353469812989784
13,1.648,1.0,0.3225,1,RA90,0.4995624314872799
14,2.138,1.0,0.3225,1,RA90,0.7598708126028534
15,1.635,0.0,-0.3225,1,RA90,0.4916428043492167
16,1.997,1.0,-0.3225,0,RA90,0.6916460544336782
17,1.443,0.0,-0.3225,1,RA90,0.36672427979173383
18,1.857,1.0,-0.3225,0,RA90,0.6189622823705687
19,1.543,1.0,0.3225,1,RA90,0.4337285733810237
20,1.384,1.0,0.3225,1,RA90,0.3249778571954777
21,2.01,0.0,-0.3225,1,RA90,0.6981347220709843
22,1.131,1.0,0.3225,1,RA90,0.1231021971339834
23,1.69,0.0,0.3225,0,RA90,0.5247285289349821
24,1.678,0.0,-0.3225,1,RA90,0.5176026080450143
25,1.056,1.0,0.3225,1,RA90,0.05448818528406978
26,1.171,1.0,0.3225,1,RA90,0.15785808461558032
27,1.251,1.0,0.3225,1,RA90,0.22394323148477402
28,1.515,1.0,-0.3225,0,RA90,0.4154154389613324
29,2.115,1.0,0.3225,1,RA90,0.7490548124982414
30,1.403,1.0,0.3225,1,RA90,0.33861280112032394
31,1.241,1.0,-0.3225,0,RA90,0.21591750622247025
32,1.822,0.0,-0.3225,1,RA90,0.5999347988377666
33,1.416,0.0,0.3225,0,RA90,0.347835995271528
34,1.061,1.0,0.3225,1,RA90,0.059211859631846026
35,1.618,1.0,0.3225,1,RA90,0.48119081863630003
36,1.168,1.0,0.3225,1,RA90,0.15529288440603525
37,1.541,0.0,-0.3225,1,RA90,0.43243155633797864
38,1.435,0.0,-0.3225,1,RA90,0.3611648492115844
39,1.607,1.0,-0.3225,0,RA90,0.47436908675537554
40,1.463,0.0,-0.3225,1,RA90,0.3804891220379873
41,1.579,0.0,0.3225,0,RA90,0.45679173527350503
42,1.431,0.0,0.3225,0,RA90,0.3583735005743139
43,1.881,1.0,-0.3225,0,RA90,0.6318035503188933
44,1.534,1.0,-0.3225,0,RA90,0.42787870294506447
45,1.624,1.0,0.3225,1,RA90,0.48489224173948625
46,1.724,0.0,-0.3225,1,RA90,0.5446471722415014
47,1.259,1.0,0.3225,1,RA90,0.23031775506221006
48,1.156,1.0,0.3225,1,RA90,0.14496577025018567
49,1.584,1.0,0.3225,1,RA90,0.4599532933922342
50,1.675,1.0,-0.3225,0,RA90,0.5158131652770298
51,1.855,0.0,-0.3225,1,RA90,0.6178846960593984
52,1.405,1.0,0.3225,1,RA90,0.3400373027857091
53,1.217,1.0,0.3225,1,RA90,0.19638881400539018
54,1.621,0.0,-0.3225,1,RA90,0.48304324275353905
55,1.457,0.0,-0.3225,1,RA90,0.37637952721306783
56,1.179,0.0,-0.3225,1,RA90,0.16466662155523393
57,1.11,0.0,0.3225,0,RA90,0.10436001532424286
58,1.463,1.0,0.3225,1,RA90,0.3804891220379873
59,1.65,0.0,-0.3225,1,RA90,0.5007752879124892
60,1.261,0.0,-0.3225,1,RA90,0.2319050569827824
61,1.999,0.0,0.3225,0,RA90,0.6926470555182631
62,1.279,0.0,-0.3225,1,RA90,0.24607852259670557
63,1.399,0.0,0.3225,0,RA90,0.3357576956833441
64,1.23,0.0,0.3225,0,RA90,0.20701416938432612
65,1.662,0.0,-0.3225,1,RA90,0.5080216964332565
66,1.173,0.0,-0.3225,1,RA90,0.15956456967133845
67,1.741,0.0,-0.3225,1,RA90,0.554459660786052
68,2.0,1.0,0.3225,1,RA90,0.6931471805599453
69,2.267,1.0,0.3225,1,RA90,0.8184573715253919
70,2.355,1.0,0.3225,1,RA90,0.8565407274683811
71,1.233,0.0,-0.3225,1,RA90,0.20945022418220732
72,1.906,0.0,-0.3225,1,RA90,0.6450068052320104
73,1.85,1.0,-0.3225,0,RA90,0.6151856390902335
74,1.702,0.0,0.3225,0,RA90,0.5318040301511824
75,1.707,1.0,-0.3225,0,RA90,0.5347374438123036
76,1.513,1.0,0.3225,1,RA90,0.4140944348062188
77,1.663,1.0,-0.3225,0,RA90,0.5086232002107907
78,1.813,1.0,-0.3225,0,RA90,0.594982931772714
79,1.64,0.0,0.3225,0,RA90,0.494696241836107
80,1.501,1.0,0.3225,1,RA90,0.40613155265132483
81,1.204,1.0,-0.3225,0,RA90,0.18564934688662926
82,1.375,1.0,0.3225,1,RA90,0.3184537311185346
83,1.727,1.0,0.3225,1,RA90,0.5463857991645416
84,1.962,0.0,0.3225,0,RA90,0.6739643611431714
85,1.29,1.0,0.3225,1,RA90,0.25464221837358075
86,2.303,1.0,-0.3225,0,RA90,0.8342126208385481
87,1.372,0.0,-0.3225,1,RA90,0.31626952930369356
88,1.71,1.0,0.3225,1,RA90,0.5364933705145685
89,1.368,0.0,0.3225,0,RA90,0.31334981920035876
90,1.208,0.0,-0.3225,1,RA90,0.18896609951262316
91,1.643,1.0,0.3225,1,RA90,0.49652383905513103
92,1.418,0.0,-0.3225,1,RA90,0.34924742810993575
93,1.423,1.0,0.3225,1,RA90,0.35276731910771536
94,1.629,0.0,-0.3225,1,RA90,0.4879663296199081
95,2.315,0.0,-0.3225,1,RA90,0.8394096875381973
96,1.722,0.0,-0.3225,1,RA90,0.543486406005539
97,1.32,0.0,0.3225,0,RA90,0.27763173659827955
98,2.023,0.0,-0.3225,1,RA90,0.7045815581856085
99,1.459,0.0,-0.3225,1,RA90,0.37775126954064864
100,1.365,1.0,0.3225,1,RA90,0.31115442863692305
1,2.505,0.0,0.6503,0,GS76,0.9182887345368281
2,3.01,1.0,0.6503,1,GS76,1.1019400787607843
3,3.955,0.0,0.6503,0,GS76,1.3749806012196173
4,3.379,0.0,0.6503,0,GS76,1.217579807732153
5,3.741,0.0,0.6503,0,GS76,1.319352955366009
6,3.741,0.0,0.6503,0,GS76,1.319352955366009
7,1.052,0.0,-0.6503,1,GS76,0.05069311431551816
8,1.516,1.0,-0.6503,0,GS76,0.41607528722017995
9,1.25,1.0,0.6503,1,GS76,0.22314355131420976
10,2.369,0.0,0.6503,0,GS76,0.8624679251766485
11,1.541,0.0,0.6503,0,GS76,0.43243155633797864
12,1.427,1.0,0.6503,1,GS76,0.3555743384946994
13,1.423,0.0,0.6503,0,GS76,0.35276731910771536
14,1.578,1.0,0.6503,1,GS76,0.45615822242368254
15,1.394,0.0,0.6503,0,GS76,0.3321773123383321
16,1.514,1.0,0.6503,1,GS76,0.41475515501525706
17,2.266,0.0,0.6503,0,GS76,0.8180161626058146
18,1.456,1.0,0.6503,1,GS76,0.3756929497744942
19,1.411,0.0,0.6503,0,GS76,0.344298672870677
20,2.148,1.0,0.6503,1,GS76,0.7645371766466184
21,2.295,0.0,0.6503,0,GS76,0.8307328435125084
22,1.509,1.0,0.6503,1,GS76,0.41144717978571177
23,1.321,1.0,0.6503,1,GS76,0.2783890255401882
24,1.651,0.0,0.6503,0,GS76,0.501381164937991
25,1.363,1.0,0.6503,1,GS76,0.3096881527143956
26,1.299,0.0,0.6503,0,GS76,0.2615947376884625
27,1.741,1.0,-0.6503,0,GS76,0.554459660786052
28,2.266,0.0,0.6503,0,GS76,0.8180161626058146
29,2.837,0.0,-0.6503,1,GS76,1.0427471558267143
30,2.115,1.0,0.6503,1,GS76,0.7490548124982414
31,2.812,0.0,-0.6503,1,GS76,1.0338959739484184
32,2.409,1.0,0.6503,1,GS76,0.8792117236327343
33,1.681,0.0,0.6503,0,GS76,0.5193888544264785
34,1.686,0.0,0.6503,0,GS76,0.5223588595796637
35,1.974,0.0,0.6503,0,GS76,0.6800619410112898
36,2.64,1.0,0.6503,1,GS76,0.9707789171582248
37,1.314,1.0,0.6503,1,GS76,0.2730759200624188
38,0.978,0.0,-0.6503,1,GS76,-0.02224560894731974
39,1.206,1.0,0.6503,1,GS76,0.18730909830499365
40,1.196,0.0,-0.6503,1,GS76,0.17898265552843995
41,1.957,1.0,0.6503,1,GS76,0.6714126884139392
42,1.501,0.0,-0.6503,1,GS76,0.40613155265132483
43,1.079,1.0,0.6503,1,GS76,0.07603468627599758
44,2.019,0.0,0.6503,0,GS76,0.7026023393307005
45,1.327,1.0,0.6503,1,GS76,0.28292075535007044
46,1.404,0.0,0.6503,0,GS76,0.33932530560361934
47,1.953,1.0,0.6503,1,GS76,0.6693666518945419
48,2.364,1.0,0.6503,1,GS76,0.8603550995438517
49,0.731,0.0,0.6503,0,GS76,-0.3133418192323586
50,2.432,0.0,0.6503,0,GS76,0.8887139641039206
51,1.792,0.0,-0.6503,1,GS76,0.5833323145527387
52,1.079,0.0,-0.6503,1,GS76,0.07603468627599758
53,1.714,0.0,-0.6503,1,GS76,0.538829820175588
54,1.164,0.0,0.6503,0,GS76,0.15186234930924603
55,1.597,0.0,0.6503,0,GS76,0.4681268692328754
56,2.293,0.0,0.6503,0,GS76,0.8298610038757674
57,1.851,0.0,0.6503,0,GS76,0.6157260335913605
58,2.488,0.0,-0.6503,1,GS76,0.911479174876933
59,2.441,0.0,0.6503,0,GS76,0.8924077914108229
60,2.573,1.0,0.6503,1,GS76,0.945072533299607
61,1.534,0.0,0.6503,0,GS76,0.42787870294506447
62,1.393,0.0,-0.6503,1,GS76,0.3314596947976686
63,1.904,1.0,0.6503,1,GS76,0.6439569363691735
64,1.132,0.0,0.6503,0,GS76,0.1239859797809911
65,1.564,0.0,0.6503,0,GS76,0.4472466421231194
66,1.906,0.0,0.6503,0,GS76,0.6450068052320104
67,1.866,0.0,-0.6503,1,GS76,0.6237971024251522
68,2.267,0.0,0.6503,0,GS76,0.8184573715253919
69,2.81,0.0,0.6503,0,GS76,1.0331844833456545
70,2.159,1.0,0.6503,1,GS76,0.7696451515326702
71,1.171,1.0,0.6503,1,GS76,0.15785808461558032
72,1.592,0.0,-0.6503,1,GS76,0.4649910874221913
73,2.769,0.0,0.6503,0,GS76,1.018486244188825
74,1.79,1.0,0.6503,1,GS76,0.5822156198526637
75,1.919,0.0,0.6503,0,GS76,0.6518042170255629
76,1.505,1.0,0.6503,1,GS76,0.40879289820083897
77,1.374,0.0,-0.6503,1,GS76,0.31772619380015765
78,2.298,0.0,0.6503,0,GS76,0.8320391794265639
79,1.773,1.0,0.6503,1,GS76,0.5726730270920708
80,1.28,0.0,0.6503,0,GS76,0.2468600779315258
81,2.363,0.0,0.6503,0,GS76,0.8599319982047707
82,1.948,0.0,-0.6503,1,GS76,0.6668032052203433
83,2.551,1.0,0.6503,1,GS76,0.9364854391596744
84,1.576,1.0,0.6503,1,GS76,0.4548899914356874
85,1.707,0.0,0.6503,0,GS76,0.5347374438123036
86,1.259,1.0,0.6503,1,GS76,0.23031775506221006
87,1.107,0.0,0.6503,0,GS76,0.10165365372649982
88,2.535,0.0,0.6503,0,GS76,0.9301936370431465
89,2.317,0.0,-0.6503,1,GS76,0.8402732454502392
90,1.195,1.0,0.6503,1,GS76,0.17814618538347404
91,1.063,1.0,0.6503,1,GS76,0.06109509935981082
92,1.149,0.0,0.6503,0,GS76,0.13889199886661865
93,2.16,0.0,0.6503,0,GS76,0.7701082216960737
94,1.684,0.0,0.6503,0,GS76,0.521171915820135
95,1.466,1.0,0.6503,1,GS76,0.3825376034644597
96,1.392,0.0,0.6503,0,GS76,0.33074156191222787
97,1.323,1.0,0.6503,1,GS76,0.27990188513281855
98,1.018,1.0,0.6503,1,GS76,0.017839918128331016
99,1.061,0.0,-0.6503,1,GS76,0.059211859631846026
100,1.309,0.0,-0.6503,1,GS76,0.2692634869277628
1,1.31,0.0,-0.6503,1,GS76,0.2700271372130602
2,1.451,0.0,0.6503,0,GS76,0.3722529739020508
3,1.654,0.0,0.6503,0,GS76,0.5031965966014995
4,1.211,0.0,0.6503,0,GS76,0.19144646457095527
5,1.176,0.0,0.6503,0,GS76,0.16211884947643512
6,1.627,0.0,0.6503,0,GS76,0.48673782823690076
7,1.863,0.0,-0.6503,1,GS76,0.6221880916194514
8,2.306,0.0,0.6503,0,GS76,0.8355144218468673
9,2.358,1.0,0.6503,1,GS76,0.8578138021151792
10,1.302,0.0,0.6503,0,GS76,0.26390154378637753
11,1.195,1.0,0.6503,1,GS76,0.17814618538347404
12,0.957,1.0,0.6503,1,GS76,-0.04395188752918283
13,1.211,0.0,0.6503,0,GS76,0.19144646457095527
14,1.204,1.0,0.6503,1,GS76,0.18564934688662926
15,1.205,0.0,-0.6503,1,GS76,0.18647956694261839
16,1.173,1.0,0.6503,1,GS76,0.15956456967133845
17,1.083,0.0,0.6503,0,GS76,0.07973496801885353
18,1.41,1.0,0.6503,1,GS76,0.34358970439007686
19,1.493,0.0,0.6503,0,GS76,0.4007875185570534
20,1.166,1.0,-0.6503,0,GS76,0.15357908792830058
21,1.177,1.0,0.6503,1,GS76,0.1629688282781397
22,1.605,0.0,-0.6503,1,GS76,0.4731237565819792
23,3.103,0.0,0.6503,0,GS76,1.132369385466243
24,1.414,1.0,0.6503,1,GS76,0.34642256747438094
25,2.263,0.0,0.6503,0,GS76,0.8166913666514003
26,1.517,1.0,-0.6503,0,GS76,0.41673470036639515
27,1.307,0.0,0.6503,0,GS76,0.26773443464208485
28,1.507,1.0,0.6503,1,GS76,0.4101209196443583
29,1.466,0.0,0.6503,0,GS76,0.3825376034644597
30,1.968,0.0,0.6503,0,GS76,0.6770177986300616
31,1.244,1.0,0.6503,1,GS76,0.2183319943169877
32,1.093,0.0,-0.6503,1,GS76,0.08892620919440149
33,1.413,1.0,0.6503,1,GS76,0.34571510370239045
34,1.127,0.0,0.6503,0,GS76,0.11955923505763924
35,1.173,1.0,0.6503,1,GS76,0.15956456967133845
36,1.888,0.0,0.6503,0,GS76,0.6355180677233089
37,1.031,1.0,0.6503,1,GS76,0.03052920503482279
38,1.161,0.0,-0.6503,1,GS76,0.14928170271575447
39,1.203,1.0,-0.6503,0,GS76,0.18481843699254188
40,1.128,0.0,0.6503,0,GS76,0.12044615307586706
41,1.195,1.0,0.6503,1,GS76,0.17814618538347404
42,1.755,0.0,0.6503,0,GS76,0.5624688569178291
43,1.116,0.0,-0.6503,1,GS76,0.10975086395911929
44,1.048,1.0,0.6503,1,GS76,0.046883585898850465
45,1.435,0.0,-0.6503,1,GS76,0.3611648492115844
46,1.691,0.0,0.6503,0,GS76,0.5253200699164433
47,2.192,1.0,0.6503,1,GS76,0.7848143690857692
48,1.553,0.0,0.6503,0,GS76,0.44018854416654996
49,1.379,1.0,0.6503,1,GS76,0.32135859881116474
50,1.455,0.0,-0.6503,1,GS76,0.37500590062345585
51,1.503,1.0,0.6503,1,GS76,0.40746311077083736
52,1.322,0.0,-0.6503,1,GS76,0.2791457414294946
53,1.496,0.0,0.6503,0,GS76,0.4027948795522855
54,1.3,0.0,0.6503,0,GS76,0.26236426446749106
55,2.06,0.0,0.6503,0,GS76,0.7227059828014898
56,2.313,0.0,0.6503,0,GS76,0.8385453832493022
57,1.035,1.0,0.6503,1,GS76,0.03440142671733232
58,1.186,1.0,0.6503,1,GS76,0.17058630057553364
59,2.221,0.0,0.6503,0,GS76,0.7979575449122904
60,1.894,0.0,0.6503,0,GS76,0.6386909947638865
61,1.495,0.0,0.6503,0,GS76,0.4021262068426498
62,1.263,0.0,0.6503,0,GS76,0.233489843368354
63,1.161,0.0,0.6503,0,GS76,0.14928170271575447
64,1.136,0.0,0.6503,0,GS76,0.1275133202989595
65,1.94,0.0,0.6503,0,GS76,0.6626879730752367
66,1.371,0.0,-0.6503,1,GS76,0.3155404005801773
67,1.081,0.0,0.6503,0,GS76,0.0778865386570712
68,1.697,0.0,0.6503,0,GS76,0.5288619862520894
69,1.847,0.0,0.6503,0,GS76,0.6135627012171029
70,2.433,0.0,0.6503,0,GS76,0.8891250638013855
71,2.785,0.0,0.6503,0,GS76,1.0242478733792475
72,2.453,0.0,0.6503,0,GS76,0.8973117652763521
73,1.342,0.0,-0.6503,1,GS76,0.2941610385494901
74,1.724,0.0,0.6503,0,GS76,0.5446471722415014
75,1.559,0.0,-0.6503,1,GS76,0.44404459007563946
76,2.465,0.0,0.6503,0,GS76,0.9021918074946533
77,1.601,0.0,0.6503,0,GS76,0.4706284340145776
78,1.756,0.0,0.6503,0,GS76,0.5630384952129249
79,2.527,0.0,0.6503,0,GS76,0.9270328284060573
80,2.346,0.0,0.6503,0,GS76,0.8527117502312838
81,2.607,0.0,0.6503,0,GS76,0.9582001349513648
82,1.184,1.0,0.6503,1,GS76,0.16889853646181388
83,1.363,0.0,0.6503,0,GS76,0.3096881527143956
84,1.434,0.0,0.6503,0,GS76,0.36046774217742855
85,1.054,1.0,0.6503,1,GS76,0.052592450119170624
86,1.659,0.0,0.6503,0,GS76,0.5062150112083075
87,1.521,1.0,0.6503,1,GS76,0.4193680132771557
88,1.703,0.0,0.6503,0,GS76,0.5323914016805513
89,2.018,0.0,0.6503,0,GS76,0.7021069219314171
90,2.36,0.0,0.6503,0,GS76,0.8586616190375187
91,2.143,0.0,-0.6503,1,GS76,0.7622067164914399
92,1.87,0.0,0.6503,0,GS76,0.6259384308664954
93,1.18,0.0,-0.6503,1,GS76,0.16551443847757333
94,1.794,0.0,0.6503,0,GS76,0.5844477636366044
95,2.19,0.0,0.6503,0,GS76,0.7839015438284094
96,2.692,0.0,0.6503,0,GS76,0.9902844117824814
97,2.468,0.0,0.6503,0,GS76,0.9034081060431414
98,2.612,0.0,-0.6503,1,GS76,0.9601162114141847
99,1.664,0.0,-0.6503,1,GS76,0.5092243423990168
100,2.373,0.0,0.6503,0,GS76,0.8641549774536266
1,2.946,0.0,0.6503,0,GS76,1.0804483180404385
2,1.215,1.0,0.6503,1,GS76,0.19474407679251185
3,1.249,0.0,0.6503,0,GS76,0.2223432311434407
4,1.137,1.0,0.6503,1,GS76,0.128393214768399
5,1.026,0.0,-0.6503,1,GS76,0.025667746748577816
6,1.131,1.0,0.6503,1,GS76,0.1231021971339834
7,2.293,0.0,-0.6503,1,GS76,0.8298610038757674
8,1.012,1.0,0.6503,1,GS76,0.011928570865273812
9,1.646,0.0,0.6503,0,GS76,0.498348102254878
10,1.532,1.0,0.6503,1,GS76,0.4265740713183996
11,1.284,0.0,-0.6503,1,GS76,0.24998020526776946
12,1.082,1.0,0.6503,1,GS76,0.07881118042428985
13,1.788,0.0,0.6503,0,GS76,0.5810976767513224
14,1.012,1.0,-0.6503,0,GS76,0.011928570865273812
15,1.245,0.0,0.6503,0,GS76,0.219135529916671
16,1.423,0.0,0.6503,0,GS76,0.35276731910771536
17,2.02,0.0,-0.6503,1,GS76,0.7030975114131134
18,1.102,1.0,0.6503,1,GS76,0.09712671073072283
19,1.226,0.0,0.6503,0,GS76,0.20375683751401963
20,1.163,1.0,0.6503,1,GS76,0.1510028735365274
21,1.136,0.0,-0.6503,1,GS76,0.1275133202989595
22,1.496,1.0,0.6503,1,GS76,0.4027948795522855
23,1.329,0.0,-0.6503,1,GS76,0.28442677973110825
24,1.556,0.0,-0.6503,1,GS76,0.4421184257561999
25,1.626,0.0,0.6503,0,GS76,0.4861230111256188
26,1.429,0.0,0.6503,0,GS76,0.3569748989477304
27,1.384,0.0,-0.6503,1,GS76,0.3249778571954777
28,2.344,0.0,0.6503,0,GS76,0.8518588717147662
29,2.271,0.0,0.6503,0,GS76,0.8202202631234213
30,2.51,1.0,-0.6503,0,GS76,0.9202827531436925
31,1.823,0.0,0.6503,0,GS76,0.6004834956965259
32,1.2,1.0,0.6503,1,GS76,0.1823215567939546
33,1.205,0.0,0.6503,0,GS76,0.18647956694261839
34,1.858,1.0,0.6503,1,GS76,0.6195006403916469
35,1.375,0.0,0.6503,0,GS76,0.3184537311185346
36,1.42,1.0,-0.6503,0,GS76,0.35065687161316933
37,1.61,0.0,-0.6503,1,GS76,0.4762341789963717
38,1.342,1.0,0.6503,1,GS76,0.2941610385494901
39,1.616,1.0,0.6503,1,GS76,0.4799539600989037
40,1.63,1.0,0.6503,1,GS76,0.4885800148186709
41,1.81,0.0,0.6503,0,GS76,0.5933268452777344
42,1.315,1.0,0.6503,1,GS76,0.27383666562972786
43,1.269,1.0,0.6503,1,GS76,0.23822918873225055
44,1.514,1.0,0.6503,1,GS76,0.41475515501525706
45,1.735,0.0,0.6503,0,GS76,0.5510074133988225
46,1.625,0.0,0.6503,0,GS76,0.4855078157817008
47,1.904,0.0,0.6503,0,GS76,0.6439569363691735
48,1.546,0.0,0.6503,0,GS76,0.4356709501652302
49,1.553,0.0,0.6503,0,GS76,0.44018854416654996
50,2.518,0.0,0.6503,0,GS76,0.9234649356221554
51,2.633,0.0,0.6503,0,GS76,0.9681238805141723
52,1.481,1.0,0.6503,1,GS76,0.3927175352856618
53,1.28,0.0,0.6503,0,GS76,0.2468600779315258
54,1.347,0.0,-0.6503,1,GS76,0.2978798974282269
55,1.275,0.0,-0.6503,1,GS76,0.2429461786103894
56,1.369,0.0,0.6503,0,GS76,0.3140805463063118
57,1.681,1.0,0.6503,1,GS76,0.5193888544264785
58,1.631,0.0,-0.6503,1,GS76,0.4891933236388768
59,1.59,0.0,0.6503,0,GS76,0.4637340162321402
60,2.162,0.0,0.6503,0,GS76,0.7710337192170165
61,2.52,0.0,-0.6503,1,GS76,0.9242589015233319
62,1.309,1.0,0.6503,1,GS76,0.2692634869277628
63,1.332,0.0,-0.6503,1,GS76,0.28668157211819745
64,1.067,1.0,0.6503,1,GS76,0.06485097231961627
65,1.756,0.0,0.6503,0,GS76,0.5630384952129249
66,1.449,1.0,0.6503,1,GS76,0.3708736633385453
67,1.68,0.0,0.6503,0,GS76,0.5187937934151675
68,1.413,1.0,0.6503,1,GS76,0.34571510370239045
69,1.25,0.0,0.6503,0,GS76,0.22314355131420976
70,2.658,0.0,0.6503,0,GS76,0.9775739602910536
71,2.171,0.0,0.6503,0,GS76,0.7751878908961547
72,2.051,1.0,0.6503,1,GS76,0.7183274790902436
73,1.808,0.0,0.6503,0,GS76,0.5922212619699848
74,1.413,0.0,0.6503,0,GS76,0.34571510370239045
75,3.013,0.0,0.6503,0,GS76,1.1029362601481643
76,1.44,1.0,0.6503,1,GS76,0.36464311358790924
77,1.541,0.0,0.6503,0,GS76,0.43243155633797864
78,2.2,1.0,0.6503,1,GS76,0.7884573603642703
79,2.315,0.0,0.6503,0,GS76,0.8394096875381973
80,2.32,1.0,-0.6503,0,GS76,0.8415671856782185
81,1.658,1.0,0.6503,1,GS76,0.5056120567131032
82,2.101,0.0,0.6503,0,GS76,0.7424134218628634
83,2.893,0.0,0.6503,0,GS76,1.062294025993998
84,2.196,0.0,0.6503,0,GS76,0.7866375236472842
85,2.417,0.0,0.6503,0,GS76,0.8825271017213459
86,1.473,1.0,0.6503,1,GS76,0.3873011374804933
87,1.191,0.0,0.6503,0,GS76,0.1747932903731631
88,1.192,1.0,-0.6503,0,GS76,0.175632568643158
89,2.838,1.0,0.6503,1,GS76,1.043099578737851
90,1.161,1.0,0.6503,1,GS76,0.14928170271575447
91,1.487,0.0,0.6503,0,GS76,0.3967606674780181
92,2.452,1.0,0.6503,1,GS76,0.8969040180739649
93,2.633,0.0,0.6503,0,GS76,0.9681238805141723
94,1.537,1.0,0.6503,1,GS76,0.42983246455645874
95,2.271,0.0,0.6503,0,GS76,0.8202202631234213
96,1.691,0.0,0.6503,0,GS76,0.5253200699164433
97,2.035,0.0,0.6503,0,GS76,0.7104958188945584
98,2.437,1.0,-0.6503,0,GS76,0.8907677746430691
99,1.2,0.0,0.6503,0,GS76,0.1823215567939546
100,1.625,1.0,0.6503,1,GS76,0.4855078157817008
1,5.608,1.0,-0.6503,0,GS76,1.7241941497322888
2,1.24,0.0,-0.6503,1,GS76,0.2151113796169455
3,2.719,0.0,0.6503,0,GS76,1.0002641656503337
4,1.281,0.0,-0.6503,1,GS76,0.2476410229145971
5,1.155,0.0,-0.6503,1,GS76,0.14410034397375687
6,1.31,0.0,0.6503,0,GS76,0.2700271372130602
7,2.068,0.0,0.6503,0,GS76,0.7265819566461827
8,2.209,0.0,0.6503,0,GS76,0.7925399244379802
9,1.628,1.0,0.6503,1,GS76,0.4873522675803485
10,0.999,1.0,0.6503,1,GS76,-0.0010005003335835344
11,12.604,0.0,0.6503,1,GS76,2.5340142238950283
12,1.552,0.0,-0.6503,1,GS76,0.43954442176102704
13,10.742,0.0,-0.6503,1,GS76,2.3741612914832677
14,2.246,0.0,0.6503,0,GS76,0.8091508563162514
15,2.005,0.0,-0.6503,1,GS76,0.6956440607585325
16,1.33,0.0,-0.6503,1,GS76,0.2851789422336624
17,1.134,0.0,-0.6503,1,GS76,0.12575120530556025
18,1.058,1.0,0.6503,1,GS76,0.05638033343610769
19,1.514,1.0,0.6503,1,GS76,0.41475515501525706
20,1.501,0.0,0.6503,0,GS76,0.40613155265132483
21,1.097,0.0,-0.6503,1,GS76,0.09257918129309317
22,1.136,0.0,-0.6503,1,GS76,0.1275133202989595
23,1.299,0.0,-0.6503,1,GS76,0.2615947376884625
24,1.001,0.0,-0.6503,1,GS76,9.995003330834232e-4
25,2.252,0.0,0.6503,0,GS76,0.8118187102774439
26,2.288,0.0,-0.6503,1,GS76,0.8276780735175514
27,2.362,0.0,0.6503,0,GS76,0.8595087177751706
28,1.555,0.0,-0.6503,1,GS76,0.4414755456311974
29,2.391,0.0,0.6503,0,GS76,0.8717116884761876
30,2.487,0.0,0.6503,0,GS76,0.9110771648212677
31,1.614,1.0,0.6503,1,GS76,0.4787155698477571
32,1.272,0.0,0.6503,0,GS76,0.24059046491793043
33,1.591,0.0,-0.6503,1,GS76,0.4643627493556498
34,1.74,0.0,-0.6503,1,GS76,0.5538851132264376
35,2.401,1.0,-0.6503,0,GS76,0.8758853172391161
36,1.338,0.0,-0.6503,1,GS76,0.29117596170603677
37,1.519,1.0,0.6503,1,GS76,0.41805222361363575
38,1.65,1.0,-0.6503,0,GS76,0.5007752879124892
39,1.334,0.0,0.6503,0,GS76,0.288181947493432
40,1.639,1.0,0.6503,1,GS76,0.49408629976169266
41,1.476,1.0,0.6503,1,GS76,0.38933572617828077
42,1.565,1.0,0.6503,1,GS76,0.4478858239921165
43,1.375,1.0,-0.6503,0,GS76,0.3184537311185346
44,1.655,1.0,-0.6503,0,GS76,0.5038010088290262
45,1.17,1.0,0.6503,1,GS76,0.15700374880966467
46,1.681,1.0,0.6503,1,GS76,0.5193888544264785
47,1.138,1.0,0.6503,1,GS76,0.1292723357041391
48,1.693,1.0,0.6503,1,GS76,0.5265021031509983
49,1.248,0.0,-0.6503,1,GS76,0.22154226994723591
50,1.3,0.0,-0.6503,1,GS76,0.26236426446749106
51,1.814,1.0,0.6503,1,GS76,0.5955343516929449
52,1.154,0.0,-0.6503,1,GS76,0.14323416808590775
53,2.056,0.0,-0.6503,1,GS76,0.7207623475929187
54,1.363,0.0,-0.6503,1,GS76,0.3096881527143956
55,1.946,0.0,0.6503,0,GS76,0.6657759837638133
56,2.279,0.0,0.6503,0,GS76,0.8237367502635472
57,2.319,0.0,0.6503,0,GS76,0.8411360582733945
58,2.319,0.0,0.6503,0,GS76,0.8411360582733945
59,2.741,0.0,0.6503,0,GS76,1.0083228173206489
60,2.476,1.0,0.6503,1,GS76,0.9066443548223496
61,1.666,0.0,0.6503,0,GS76,0.5104255437446509
62,2.258,1.0,0.6503,1,GS76,0.8144794657274703
63,1.348,0.0,-0.6503,1,GS76,0.2986220124901154
64,2.563,0.0,-0.6503,1,GS76,0.9411784473819341
65,1.767,0.0,-0.6503,1,GS76,0.5692831933375593
66,2.828,0.0,-0.6503,1,GS76,1.0395697480343262
67,2.145,0.0,-0.6503,1,GS76,0.7631395523799803
68,1.354,0.0,-0.6503,1,GS76,0.3030631744900833
69,2.45,1.0,-0.6503,0,GS76,0.8960880245566357
70,2.215,1.0,0.6503,1,GS76,0.7952524034970989
71,2.985,0.0,0.6503,0,GS76,1.0935997468445653
72,1.101,0.0,-0.6503,1,GS76,0.0962188577405429
73,2.341,0.0,0.6503,0,GS76,0.8505781885087738
74,1.232,1.0,0.6503,1,GS76,0.208638865111328
75,1.401,0.0,-0.6503,1,GS76,0.33718626735487
76,0.959,0.0,0.6503,0,GS76,-0.04186420409869887
77,1.366,1.0,0.6503,1,GS76,0.3118867611485984
78,1.222,1.0,-0.6503,0,GS76,0.20048886074940356
79,1.602,1.0,0.6503,1,GS76,0.4712528486461675
80,1.826,0.0,0.6503,0,GS76,0.6021277821727767
81,1.661,0.0,-0.6503,1,GS76,0.5074198306311578
82,2.297,1.0,-0.6503,0,GS76,0.8316039237069612
83,1.927,0.0,-0.6503,1,GS76,0.6559643894322293
84,1.681,0.0,-0.6503,1,GS76,0.5193888544264785
85,1.848,0.0,0.6503,0,GS76,0.6141039732194925
86,2.112,0.0,-0.6503,1,GS76,0.7476353658440151
87,1.205,1.0,0.6503,1,GS76,0.18647956694261839
88,22.221,1.0,-0.6503,0,GS76,3.1010377876992616
89,1.457,1.0,-0.6503,0,GS76,0.37637952721306783
90,1.135,1.0,0.6503,1,GS76,0.126632650933366
91,0.942,1.0,0.6503,1,GS76,-0.05975000440577405
92,13.302,1.0,0.6503,1,GS76,2.5879143998622296
93,1.36,0.0,-0.6503,1,GS76,0.3074846997479607
94,1.052,0.0,0.6503,0,GS76,0.05069311431551816
95,1.623,0.0,-0.6503,1,GS76,0.48427628853245414
96,1.83,0.0,-0.6503,1,GS76,0.6043159668533296
97,2.148,1.0,-0.6503,0,GS76,0.7645371766466184
98,1.195,1.0,0.6503,1,GS76,0.17814618538347404
99,1.343,1.0,-0.6503,0,GS76,0.2949059175411005
100,1.318,1.0,-0.6503,0,GS76,0.2761154360803155
1,1.617,1.0,0.6503,1,GS76,0.48057258059496977
2,1.046,0.0,-0.6503,1,GS76,0.0449733656427312
3,1.011,0.0,-0.6503,1,GS76,0.010939940038334263
4,1.335,0.0,0.6503,0,GS76,0.28893129185221283
5,1.533,1.0,0.6503,1,GS76,0.42722659988967704
6,1.581,0.0,0.6503,0,GS76,0.45805755822733496
7,1.651,0.0,0.6503,0,GS76,0.501381164937991
8,1.569,0.0,-0.6503,1,GS76,0.4504384737508955
9,1.145,0.0,-0.6503,1,GS76,0.13540463700620298
10,1.889,0.0,-0.6503,1,GS76,0.6360475885193725
11,1.445,1.0,0.6503,1,GS76,0.3681093215643955
12,1.895,0.0,-0.6503,1,GS76,0.6392188385343897
13,1.246,0.0,-0.6503,1,GS76,0.2199384203652614
14,1.331,1.0,-0.6503,0,GS76,0.2859305394129745
15,1.489,0.0,-0.6503,1,GS76,0.39810475370187204
16,1.064,1.0,0.6503,1,GS76,0.0620353909194527
17,1.125,1.0,0.6503,1,GS76,0.11778303565638346
18,2.105,0.0,-0.6503,1,GS76,0.7443154671343447
19,1.648,1.0,0.6503,1,GS76,0.4995624314872799
20,1.102,1.0,0.6503,1,GS76,0.09712671073072283
21,1.061,0.0,-0.6503,1,GS76,0.059211859631846026
22,2.174,0.0,-0.6503,1,GS76,0.7765687886990177
23,2.329,0.0,0.6503,0,GS76,0.845438990902204
24,1.152,1.0,0.6503,1,GS76,0.14149956227369942
25,1.233,0.0,-0.6503,1,GS76,0.20945022418220732
26,1.334,0.0,-0.6503,1,GS76,0.288181947493432
27,1.449,1.0,-0.6503,0,GS76,0.3708736633385453
28,1.236,0.0,0.6503,0,GS76,0.211880359035499
29,1.424,1.0,0.6503,1,GS76,0.353469812989784
30,1.237,0.0,-0.6503,1,GS76,0.21268909341035092
31,1.825,0.0,-0.6503,1,GS76,0.6015799870344548
32,2.007,0.0,-0.6503,1,GS76,0.6966410698142012
33,1.628,1.0,0.6503,1,GS76,0.4873522675803485
34,1.185,0.0,0.6503,0,GS76,0.16974277458709455
35,2.356,0.0,0.6503,0,GS76,0.8569652657893402
36,1.572,1.0,-0.6503,0,GS76,0.45234869400701483
37,1.895,0.0,-0.6503,1,GS76,0.6392188385343897
38,1.339,1.0,-0.6503,0,GS76,0.29192306670903545
39,1.643,0.0,-0.6503,1,GS76,0.49652383905513103
40,2.948,0.0,0.6503,0,GS76,1.0811269743270902
41,1.997,1.0,0.6503,1,GS76,0.6916460544336782
42,1.708,0.0,-0.6503,1,GS76,0.5353230953663781
43,1.64,0.0,-0.6503,1,GS76,0.494696241836107
44,1.514,1.0,0.6503,1,GS76,0.41475515501525706
45,1.589,0.0,0.6503,0,GS76,0.4631048875545789
46,1.854,0.0,0.6503,0,GS76,0.6173454671436635
47,2.179,0.0,0.6503,0,GS76,0.7788660559624827
48,2.388,0.0,-0.6503,1,GS76,0.8704561955303556
49,1.832,1.0,0.6503,1,GS76,0.6054082662519386
50,1.95,1.0,-0.6503,0,GS76,0.6678293725756554
51,1.244,0.0,-0.6503,1,GS76,0.2183319943169877
52,1.632,0.0,-0.6503,1,GS76,0.4898062565419152
53,2.498,0.0,0.6503,0,GS76,0.9154904117033861
54,2.532,0.0,-0.6503,1,GS76,0.9290095042819297
55,2.003,1.0,0.6503,1,GS76,0.6946460566836813
56,1.757,0.0,-0.6503,1,GS76,0.5636078092049601
57,1.537,1.0,0.6503,1,GS76,0.42983246455645874
58,1.248,0.0,-0.6503,1,GS76,0.22154226994723591
59,1.393,1.0,-0.6503,0,GS76,0.3314596947976686
60,1.189,0.0,0.6503,0,GS76,0.17311261770864483
61,1.024,0.0,0.6503,0,GS76,0.02371652661731606
62,1.346,1.0,-0.6503,0,GS76,0.2971372312225361
63,1.334,0.0,0.6503,0,GS76,0.288181947493432
64,2.112,1.0,0.6503,1,GS76,0.7476353658440151
65,1.298,1.0,0.6503,1,GS76,0.2608246182818983
66,1.839,1.0,-0.6503,0,GS76,0.609221945622184
67,2.178,1.0,-0.6503,0,GS76,0.7784070245107687
68,1.832,0.0,-0.6503,1,GS76,0.6054082662519386
69,1.674,1.0,-0.6503,0,GS76,0.5152159720672835
70,1.494,0.0,-0.6503,1,GS76,0.4014570867106256
71,1.844,0.0,0.6503,0,GS76,0.6119371251344021
72,2.244,0.0,0.6503,0,GS76,0.8082599876604499
73,1.229,1.0,0.6503,1,GS76,0.20620083058389785
74,1.354,1.0,-0.6503,0,GS76,0.3030631744900833
75,1.253,1.0,0.6503,1,GS76,0.22554067591393115
76,1.387,1.0,0.6503,1,GS76,0.32714314133269456
77,1.784,1.0,0.6503,1,GS76,0.5788580341578177
78,1.998,0.0,0.6503,0,GS76,0.6921466802263617
79,1.184,0.0,0.6503,0,GS76,0.16889853646181388
80,1.459,1.0,-0.6503,0,GS76,0.37775126954064864
81,1.351,1.0,-0.6503,0,GS76,0.3008450589780618
82,1.792,1.0,0.6503,1,GS76,0.5833323145527387
83,1.832,0.0,0.6503,0,GS76,0.6054082662519386
84,1.594,1.0,-0.6503,0,GS76,0.46624658036802336
85,1.294,1.0,-0.6503,0,GS76,0.25773819607870885
86,1.506,0.0,-0.6503,1,GS76,0.40945712937770185
87,1.343,1.0,0.6503,1,GS76,0.2949059175411005
88,1.455,0.0,-0.6503,1,GS76,0.37500590062345585
89,1.633,1.0,-0.6503,0,GS76,0.49041881398832804
90,1.534,0.0,-0.6503,1,GS76,0.42787870294506447
91,1.036,1.0,-0.6503,0,GS76,0.035367143837291344
92,2.034,1.0,0.6503,1,GS76,0.7100042976263681
93,2.002,1.0,-0.6503,0,GS76,0.6941466808930288
94,1.49,1.0,0.6503,1,GS76,0.3987761199573678
95,2.401,1.0,0.6503,1,GS76,0.8758853172391161
96,1.304,0.0,0.6503,0,GS76,0.26543646350446126
97,1.305,0.0,0.6503,0,GS76,0.2662030407746567
98,1.679,0.0,-0.6503,1,GS76,0.5181983780954038
99,1.444,1.0,0.6503,1,GS76,0.36741704047063445
100,1.488,1.0,0.6503,1,GS76,0.3974329364109001
1,2.048,1.0,-0.3815,0,MP90,0.7168637071772613
2,1.102,1.0,0.3815,1,MP90,0.09712671073072283
3,1.747,1.0,0.3815,1,MP90,0.5579000311519196
4,1.272,1.0,0.3815,1,MP90,0.24059046491793043
5,1.354,1.0,0.3815,1,MP90,0.3030631744900833
6,1.255,1.0,0.3815,1,MP90,0.22713557258374711
7,1.145,1.0,0.3815,1,MP90,0.13540463700620298
8,1.352,0.0,0.3815,0,MP90,0.3015849776207724
9,0.897,1.0,-0.3815,0,MP90,-0.10869941692334091
10,1.612,1.0,0.3815,1,MP90,0.4774756440844366
11,1.059,1.0,0.3815,1,MP90,0.05732506661926935
12,1.038,1.0,0.3815,1,MP90,0.03729578474369693
13,1.091,1.0,0.3815,1,MP90,0.08709470685093373
14,1.114,1.0,-0.3815,0,MP90,0.10795714150509236
15,1.138,1.0,0.3815,1,MP90,0.1292723357041391
16,1.042,1.0,0.3815,1,MP90,0.04114194333117521
17,1.036,1.0,0.3815,1,MP90,0.035367143837291344
18,1.01,1.0,-0.3815,0,MP90,0.009950330853168092
19,1.209,0.0,-0.3815,1,MP90,0.18979357163265567
20,3.194,0.0,0.3815,0,MP90,1.1612740497928207
21,2.217,0.0,-0.3815,1,MP90,0.7961549306341744
22,1.423,1.0,0.3815,1,MP90,0.35276731910771536
23,1.182,1.0,0.3815,1,MP90,0.1672079189839064
24,1.864,1.0,0.3815,1,MP90,0.6227247162633995
25,2.782,0.0,0.3815,0,MP90,1.023170093501251
26,1.141,1.0,0.3815,1,MP90,0.1319050708799386
27,2.501,1.0,0.3815,1,MP90,0.9166906518954819
28,1.462,1.0,0.3815,1,MP90,0.37980536132758674
29,1.919,1.0,0.3815,1,MP90,0.6518042170255629
30,2.16,1.0,0.3815,1,MP90,0.7701082216960737
31,1.06,1.0,0.3815,1,MP90,0.05826890812397583
32,1.218,1.0,0.3815,1,MP90,0.19721016928770527
33,1.137,1.0,0.3815,1,MP90,0.128393214768399
34,1.349,1.0,0.3815,1,MP90,0.2993635772256188
35,1.589,1.0,0.3815,1,MP90,0.4631048875545789
36,1.1,1.0,0.3815,1,MP90,0.09531017980432493
37,1.253,1.0,-0.3815,0,MP90,0.22554067591393115
38,1.273,0.0,-0.3815,1,MP90,0.2413763195752694
39,1.076,0.0,0.3815,0,MP90,0.07325046173959274
40,1.05,1.0,0.3815,1,MP90,0.04879016416943204
41,1.097,1.0,0.3815,1,MP90,0.09257918129309317
42,0.999,1.0,0.3815,1,MP90,-0.0010005003335835344
43,1.467,1.0,0.3815,1,MP90,0.3832194991608447
44,0.84,1.0,0.3815,1,MP90,-0.1743533871447778
45,1.086,1.0,0.3815,1,MP90,0.08250122151174376
46,1.084,1.0,0.3815,1,MP90,0.08065790301745453
47,1.349,1.0,0.3815,1,MP90,0.2993635772256188
48,1.095,1.0,0.3815,1,MP90,0.09075436326846412
49,1.223,1.0,0.3815,1,MP90,0.2013068567050354
50,2.853,0.0,0.3815,0,MP90,1.048371072231363
51,3.322,0.0,-0.3815,1,MP90,1.200567011191103
52,2.427,1.0,0.3815,1,MP90,0.8866559267444644
53,2.507,0.0,-0.3815,1,MP90,0.9190868191761564
54,2.235,0.0,-0.3815,1,MP90,0.8042412280655321
55,1.531,1.0,0.3815,1,MP90,0.42592111667554666
56,1.605,1.0,0.3815,1,MP90,0.4731237565819792
57,4.345,0.0,0.3815,0,MP90,1.4690257587173554
58,2.69,0.0,0.3815,0,MP90,0.9895411936137477
59,1.567,1.0,0.3815,1,MP90,0.44916296337388373
60,1.512,1.0,0.3815,1,MP90,0.4134332777573413
61,1.169,1.0,0.3815,1,MP90,0.15614868248993138
62,1.763,1.0,-0.3815,0,MP90,0.5670169034157331
63,1.08,1.0,0.3815,1,MP90,0.0769610411361284
64,1.863,1.0,0.3815,1,MP90,0.6221880916194514
65,2.539,1.0,-0.3815,0,MP90,0.9317703027225415
66,1.379,1.0,0.3815,1,MP90,0.32135859881116474
67,1.523,0.0,-0.3815,1,MP90,0.4206820739130247
68,1.045,1.0,0.3815,1,MP90,0.04401688541677426
69,2.985,1.0,-0.3815,0,MP90,1.0935997468445653
70,3.372,1.0,0.3815,1,MP90,1.215506040139609
71,1.926,1.0,-0.3815,0,MP90,0.6554453133759338
72,1.224,1.0,0.3815,1,MP90,0.20212418409013433
73,1.331,1.0,-0.3815,0,MP90,0.2859305394129745
74,1.256,1.0,0.3815,1,MP90,0.22793206804600694
75,2.61,0.0,0.3815,0,MP90,0.959350221334602
76,1.389,1.0,0.3815,1,MP90,0.3285840637722067
77,2.623,0.0,0.3815,0,MP90,0.9643187008847367
78,2.474,1.0,0.3815,1,MP90,0.9058362739702962
79,1.672,1.0,-0.3815,0,MP90,0.5140205146625099
80,2.61,0.0,0.3815,0,MP90,0.959350221334602
81,2.683,1.0,-0.3815,0,MP90,0.986935571443487
82,2.066,0.0,0.3815,0,MP90,0.7256143706974467
83,1.683,1.0,0.3815,1,MP90,0.520577915208669
84,1.31,0.0,0.3815,0,MP90,0.2700271372130602
85,2.999,1.0,0.3815,1,MP90,1.098278899766872
86,1.585,1.0,0.3815,1,MP90,0.46058440732924394
87,1.191,1.0,0.3815,1,MP90,0.1747932903731631
88,1.307,1.0,0.3815,1,MP90,0.26773443464208485
89,1.365,1.0,0.3815,1,MP90,0.31115442863692305
90,1.446,1.0,0.3815,1,MP90,0.36880112373657287
91,1.57,1.0,0.3815,1,MP90,0.45107561936021673
92,1.733,1.0,0.3815,1,MP90,0.5498540107334691
93,1.064,1.0,0.3815,1,MP90,0.0620353909194527
94,9.362,0.0,0.3815,0,MP90,2.2366589428778787
95,3.621,1.0,0.3815,1,MP90,1.2867502307835041
96,1.64,1.0,0.3815,1,MP90,0.494696241836107
97,0.986,1.0,0.3815,1,MP90,-0.014098924379501648
98,1.793,1.0,-0.3815,0,MP90,0.5838901946229957
99,1.321,1.0,0.3815,1,MP90,0.2783890255401882
100,1.079,1.0,0.3815,1,MP90,0.07603468627599758
1,2.172,1.0,0.3815,1,MP90,0.7756484020716891
2,1.043,1.0,-0.3815,0,MP90,0.042101176018635326
3,2.121,1.0,-0.3815,0,MP90,0.7518876755825454
4,1.524,1.0,-0.3815,0,MP90,0.42133845726445457
5,1.477,1.0,0.3815,1,MP90,0.39001300354924284
6,2.102,1.0,0.3815,1,MP90,0.7428892724547593
7,1.211,1.0,0.3815,1,MP90,0.19144646457095527
8,1.674,1.0,-0.3815,0,MP90,0.5152159720672835
9,1.055,1.0,0.3815,1,MP90,0.05354076692802976
10,1.482,1.0,0.3815,1,MP90,0.39339252687389514
11,2.187,1.0,-0.3815,0,MP90,0.7825307416946307
12,1.726,1.0,-0.3815,0,MP90,0.5458065926612362
13,1.727,1.0,0.3815,1,MP90,0.5463857991645416
14,1.517,1.0,0.3815,1,MP90,0.41673470036639515
15,2.024,0.0,0.3815,0,MP90,0.7050757514252192
16,1.922,0.0,0.3815,0,MP90,0.6533663105481007
17,1.152,1.0,0.3815,1,MP90,0.14149956227369942
18,1.536,1.0,0.3815,1,MP90,0.42918163472548043
19,1.23,1.0,0.3815,1,MP90,0.20701416938432612
20,1.482,1.0,0.3815,1,MP90,0.39339252687389514
21,1.64,1.0,0.3815,1,MP90,0.494696241836107
22,1.347,1.0,0.3815,1,MP90,0.2978798974282269
23,1.619,1.0,0.3815,1,MP90,0.4818086746954981
24,1.62,1.0,-0.3815,0,MP90,0.4824261492442928
25,1.626,1.0,0.3815,1,MP90,0.4861230111256188
26,2.326,0.0,0.3815,0,MP90,0.8441500540964727
27,1.745,0.0,-0.3815,1,MP90,0.5567545556543906
28,1.438,1.0,0.3815,1,MP90,0.3632532592988549
29,2.725,0.0,0.3815,0,MP90,1.0024684281152074
30,1.865,0.0,0.3815,0,MP90,0.6232610530957788
31,2.49,1.0,0.3815,1,MP90,0.9122827104766164
32,2.355,0.0,0.3815,0,MP90,0.8565407274683811
33,2.819,0.0,0.3815,0,MP90,1.0363822121319755
34,2.052,0.0,0.3815,0,MP90,0.7188149273085231
35,3.258,1.0,0.3815,1,MP90,1.1811135101798533
36,2.991,0.0,0.3815,0,MP90,1.095607779647811
37,2.569,1.0,0.3815,1,MP90,0.9435167181277465
38,2.728,0.0,0.3815,0,MP90,1.0035687399812157
39,2.265,0.0,0.3815,0,MP90,0.8175747589349974
40,2.754,1.0,0.3815,1,MP90,1.0130544003064632
41,1.799,1.0,0.3815,1,MP90,0.5872309549683961
42,3.297,1.0,-0.3815,0,MP90,1.1930129640895941
43,3.15,1.0,0.3815,1,MP90,1.1474024528375417
44,3.15,0.0,0.3815,0,MP90,1.1474024528375417
45,3.318,1.0,-0.3815,0,MP90,1.1993621917682529
46,2.936,1.0,0.3815,1,MP90,1.0770481107522691
47,2.68,1.0,0.3815,1,MP90,0.9858167945227654
48,1.458,1.0,-0.3815,0,MP90,0.3770656335864664
49,3.156,0.0,0.3815,0,MP90,1.1493054029836278
50,2.251,1.0,0.3815,1,MP90,0.8113745619245951
51,1.413,1.0,0.3815,1,MP90,0.34571510370239045
52,1.149,1.0,0.3815,1,MP90,0.13889199886661865
53,1.049,1.0,0.3815,1,MP90,0.04783732941416006
54,1.502,1.0,0.3815,1,MP90,0.406797553341943
55,1.901,1.0,-0.3815,0,MP90,0.6423800635062922
56,1.986,1.0,0.3815,1,MP90,0.6861225656229808
57,1.096,1.0,0.3815,1,MP90,0.09166718852582388
58,2.544,0.0,0.3815,0,MP90,0.9337376454778757
59,1.86,1.0,0.3815,1,MP90,0.62057648772511
60,2.608,1.0,0.3815,1,MP90,0.9585836440644065
61,2.977,1.0,0.3815,1,MP90,1.0909160820336392
62,2.292,0.0,-0.3815,1,MP90,0.8294247988524931
63,2.503,0.0,0.3815,0,MP90,0.9174900124496372
64,2.434,1.0,0.3815,1,MP90,0.8895359945653355
65,2.912,0.0,-0.3815,1,MP90,1.0688401303344395
66,2.734,1.0,0.3815,1,MP90,1.0057657383017578
67,1.3,1.0,0.3815,1,MP90,0.26236426446749106
68,2.152,1.0,0.3815,1,MP90,0.766397642299538
69,3.322,1.0,-0.3815,0,MP90,1.200567011191103
70,2.187,0.0,0.3815,0,MP90,0.7825307416946307
71,3.373,0.0,-0.3815,1,MP90,1.2158025560795132
72,2.399,1.0,0.3815,1,MP90,0.8750519838575576
73,1.597,1.0,0.3815,1,MP90,0.4681268692328754
74,1.384,0.0,0.3815,0,MP90,0.3249778571954777
75,1.338,0.0,0.3815,0,MP90,0.29117596170603677
76,1.174,1.0,0.3815,1,MP90,0.16041672140590466
77,1.052,1.0,0.3815,1,MP90,0.05069311431551816
78,1.308,1.0,0.3815,1,MP90,0.268499253035007
79,1.194,1.0,0.3815,1,MP90,0.17730901497041032
80,1.161,1.0,0.3815,1,MP90,0.14928170271575447
81,1.524,1.0,-0.3815,0,MP90,0.42133845726445457
82,1.663,1.0,0.3815,1,MP90,0.5086232002107907
83,2.69,1.0,-0.3815,0,MP90,0.9895411936137477
84,2.024,0.0,-0.3815,1,MP90,0.7050757514252192
85,1.781,1.0,0.3815,1,MP90,0.5771750043075246
86,1.335,1.0,0.3815,1,MP90,0.28893129185221283
87,3.377,1.0,0.3815,1,MP90,1.2169877414034307
88,2.022,1.0,0.3815,1,MP90,0.7040871205982796
89,2.525,0.0,0.3815,0,MP90,0.9262410627273231
90,4.109,1.0,0.3815,1,MP90,1.4131796899012727
91,1.481,1.0,0.3815,1,MP90,0.3927175352856618
92,1.097,1.0,0.3815,1,MP90,0.09257918129309317
93,2.464,1.0,0.3815,1,MP90,0.9017860456712733
94,4.628,0.0,0.3815,0,MP90,1.5321248093314301
95,2.838,1.0,0.3815,1,MP90,1.043099578737851
96,1.203,1.0,0.3815,1,MP90,0.18481843699254188
97,1.805,1.0,0.3815,1,MP90,0.5905605917848442
98,1.946,0.0,0.3815,0,MP90,0.6657759837638133
99,1.141,0.0,-0.3815,1,MP90,0.1319050708799386
100,1.45,1.0,0.3815,1,MP90,0.371563556432483
1,1.783,1.0,0.3815,1,MP90,0.5782973388810033
2,1.341,1.0,0.3815,1,MP90,0.29341560429954144
3,1.262,1.0,0.3815,1,MP90,0.2326977641190214
4,2.175,0.0,0.3815,0,MP90,0.7770286645406473
5,2.162,0.0,0.3815,0,MP90,0.7710337192170165
6,1.255,1.0,0.3815,1,MP90,0.22713557258374711
7,1.646,1.0,0.3815,1,MP90,0.498348102254878
8,1.394,1.0,0.3815,1,MP90,0.3321773123383321
9,1.37,0.0,0.3815,0,MP90,0.3148107398400336
10,1.085,1.0,-0.3815,0,MP90,0.08157998699242285
11,1.606,1.0,-0.3815,0,MP90,0.47374661552457
12,1.613,0.0,-0.3815,1,MP90,0.4780957991430718
13,1.458,1.0,0.3815,1,MP90,0.3770656335864664
14,1.177,1.0,0.3815,1,MP90,0.1629688282781397
15,1.832,1.0,0.3815,1,MP90,0.6054082662519386
16,1.483,1.0,0.3815,1,MP90,0.3940670631557951
17,2.997,0.0,0.3815,0,MP90,1.0976117883345262
18,3.582,0.0,-0.3815,1,MP90,1.27592130363852
19,1.805,1.0,0.3815,1,MP90,0.5905605917848442
20,1.356,1.0,0.3815,1,MP90,0.30453918951820386
21,2.305,0.0,0.3815,0,MP90,0.835080676448612
22,1.573,0.0,-0.3815,1,MP90,0.45298462407614076
23,2.333,0.0,0.3815,0,MP90,0.847154993039293
24,2.72,1.0,0.3815,1,MP90,1.000631880307906
25,2.397,1.0,-0.3815,0,MP90,0.8742179554522472
26,2.439,0.0,0.3815,0,MP90,0.8915881192337832
27,1.923,0.0,0.3815,0,MP90,0.6538864666066427
28,2.811,1.0,-0.3815,0,MP90,1.0335402919243948
29,1.966,1.0,0.3815,1,MP90,0.6760010217249748
30,2.022,1.0,0.3815,1,MP90,0.7040871205982796
31,3.042,0.0,-0.3815,1,MP90,1.112515193837101
32,2.657,1.0,-0.3815,0,MP90,0.9771976667776765
33,1.245,1.0,0.3815,1,MP90,0.219135529916671
34,1.454,0.0,0.3815,0,MP90,0.3743183791113276
35,1.957,0.0,0.3815,0,MP90,0.6714126884139392
36,1.938,0.0,-0.3815,1,MP90,0.6616565134685745
37,1.907,1.0,-0.3815,0,MP90,0.645531326618282
38,1.446,1.0,0.3815,1,MP90,0.36880112373657287
39,2.101,1.0,0.3815,1,MP90,0.7424134218628634
40,1.512,1.0,0.3815,1,MP90,0.4134332777573413
41,3.798,0.0,0.3815,0,MP90,1.3344746123900941
42,1.411,1.0,0.3815,1,MP90,0.344298672870677
43,1.69,1.0,0.3815,1,MP90,0.5247285289349821
44,2.185,0.0,0.3815,0,MP90,0.7816158285475535
45,1.454,0.0,0.3815,0,MP90,0.3743183791113276
46,2.137,1.0,0.3815,1,MP90,0.7594029763370106
47,1.971,1.0,0.3815,1,MP90,0.6785410281705831
48,1.601,1.0,0.3815,1,MP90,0.4706284340145776
49,1.814,1.0,0.3815,1,MP90,0.5955343516929449
50,2.282,1.0,0.3815,1,MP90,0.8250522514398839
51,1.924,0.0,-0.3815,1,MP90,0.6544063522435147
52,2.253,0.0,0.3815,0,MP90,0.8122626614501074
53,3.331,1.0,0.3815,1,MP90,1.2032725592115425
54,1.338,1.0,-0.3815,0,MP90,0.29117596170603677
55,1.13,1.0,0.3815,1,MP90,0.12221763272424911
56,1.247,1.0,0.3815,1,MP90,0.2207406666978995
57,1.985,1.0,-0.3815,0,MP90,0.6856189141391538
58,1.623,1.0,0.3815,1,MP90,0.48427628853245414
59,2.033,1.0,0.3815,1,MP90,0.7095125346462096
60,1.709,1.0,0.3815,1,MP90,0.5359084041334539
61,1.839,1.0,0.3815,1,MP90,0.609221945622184
62,1.341,1.0,0.3815,1,MP90,0.29341560429954144
63,2.166,1.0,0.3815,1,MP90,0.7728821485787989
64,4.146,0.0,-0.3815,1,MP90,1.422144014013588
65,2.174,0.0,-0.3815,1,MP90,0.7765687886990177
66,1.308,1.0,0.3815,1,MP90,0.268499253035007
67,1.448,1.0,0.3815,1,MP90,0.3701832939635246
68,1.242,1.0,0.3815,1,MP90,0.21672298351128702
69,1.494,1.0,0.3815,1,MP90,0.4014570867106256
70,1.929,1.0,0.3815,1,MP90,0.6570017339235921
71,2.212,1.0,0.3815,1,MP90,0.7938970836600885
72,1.923,1.0,0.3815,1,MP90,0.6538864666066427
73,2.259,1.0,0.3815,1,MP90,0.8149222374858661
74,1.432,1.0,0.3815,1,MP90,0.3590720685384538
75,2.045,1.0,0.3815,1,MP90,0.7153977894947651
76,4.138,1.0,0.3815,1,MP90,1.4202125793233513
77,1.307,1.0,0.3815,1,MP90,0.26773443464208485
78,1.66,1.0,0.3815,1,MP90,0.5068176023684519
79,2.058,1.0,0.3815,1,MP90,0.7217346374118577
80,3.483,0.0,0.3815,0,MP90,1.2478939913838643
81,1.954,1.0,0.3815,1,MP90,0.669878553620591
82,1.374,1.0,0.3815,1,MP90,0.31772619380015765
83,1.274,1.0,0.3815,1,MP90,0.24216155714997162
84,2.25,0.0,0.3815,0,MP90,0.8109302162163288
85,1.484,0.0,0.3815,0,MP90,0.39474114474518873
86,1.452,1.0,-0.3815,0,MP90,0.3729419164026043
87,1.39,1.0,0.3815,1,MP90,0.3293037471426003
88,2.408,0.0,0.3815,0,MP90,0.8787965274465745
89,2.467,1.0,0.3815,1,MP90,0.9030028375472197
90,3.517,0.0,0.3815,0,MP90,1.2576083534918454
91,3.084,1.0,-0.3815,0,MP90,1.1262274557010832
92,1.957,1.0,0.3815,1,MP90,0.6714126884139392
93,1.817,1.0,0.3815,1,MP90,0.5971867894140341
94,2.156,1.0,0.3815,1,MP90,0.7682546530467508
95,1.73,1.0,0.3815,1,MP90,0.5481214085096876
96,1.418,0.0,-0.3815,1,MP90,0.34924742810993575
97,1.686,0.0,0.3815,0,MP90,0.5223588595796637
98,1.469,0.0,-0.3815,1,MP90,0.38458189719174035
99,1.753,1.0,0.3815,1,MP90,0.5613286059390974
100,1.626,1.0,0.3815,1,MP90,0.4861230111256188
1,1.314,1.0,-0.3815,0,MP90,0.2730759200624188
2,1.995,1.0,-0.3815,0,MP90,0.6906440503418269
3,1.539,1.0,-0.3815,0,MP90,0.43113285485674213
4,2.174,1.0,-0.3815,0,MP90,0.7765687886990177
5,3.148,1.0,-0.3815,0,MP90,1.146767330555157
6,1.924,1.0,0.3815,1,MP90,0.6544063522435147
7,1.26,1.0,0.3815,1,MP90,0.23111172096338664
8,1.158,1.0,0.3815,1,MP90,0.14669437915080344
9,1.726,1.0,-0.3815,0,MP90,0.5458065926612362
10,1.708,1.0,0.3815,1,MP90,0.5353230953663781
11,1.37,1.0,0.3815,1,MP90,0.3148107398400336
12,2.202,1.0,-0.3815,0,MP90,0.7893660383004882
13,1.651,0.0,0.3815,0,MP90,0.501381164937991
14,1.756,0.0,0.3815,0,MP90,0.5630384952129249
15,2.314,0.0,0.3815,0,MP90,0.8389776287714849
16,2.107,0.0,-0.3815,1,MP90,0.745265134822052
17,1.438,0.0,0.3815,0,MP90,0.3632532592988549
18,3.425,0.0,-0.3815,1,MP90,1.2311014717141886
19,2.269,1.0,-0.3815,0,MP90,0.8193392057977047
20,2.115,1.0,-0.3815,0,MP90,0.7490548124982414
21,4.788,0.0,0.3815,0,MP90,1.5661127876957268
22,1.626,1.0,0.3815,1,MP90,0.4861230111256188
23,1.572,1.0,0.3815,1,MP90,0.45234869400701483
24,1.447,0.0,-0.3815,1,MP90,0.36949244764934686
25,4.56,0.0,0.3815,0,MP90,1.5173226235262947
26,1.635,1.0,0.3815,1,MP90,0.4916428043492167
27,2.254,1.0,-0.3815,0,MP90,0.8127064156175846
28,1.498,1.0,-0.3815,0,MP90,0.40413088509502776
29,1.636,1.0,-0.3815,0,MP90,0.49225423818055525
30,1.045,1.0,0.3815,1,MP90,0.04401688541677426
31,1.414,1.0,0.3815,1,MP90,0.34642256747438094
32,1.368,1.0,0.3815,1,MP90,0.31334981920035876
33,1.245,1.0,0.3815,1,MP90,0.219135529916671
34,1.207,1.0,0.3815,1,MP90,0.1881379421153945
35,2.208,1.0,-0.3815,0,MP90,0.792087128414849
36,2.201,1.0,-0.3815,0,MP90,0.7889118025443247
37,1.738,1.0,0.3815,1,MP90,0.5527350268432003
38,1.871,1.0,-0.3815,0,MP90,0.6264730472919525
39,1.419,1.0,0.3815,1,MP90,0.34995239817790563
40,2.501,0.0,-0.3815,1,MP90,0.9166906518954819
41,2.333,0.0,-0.3815,1,MP90,0.847154993039293
42,3.356,0.0,0.3815,0,MP90,1.2107497886049596
43,4.41,0.0,-0.3815,1,MP90,1.4838746894587547
44,3.776,0.0,0.3815,0,MP90,1.3286652482832542
45,1.939,1.0,0.3815,1,MP90,0.6621723762605147
46,2.811,0.0,-0.3815,1,MP90,1.0335402919243948
47,1.705,0.0,-0.3815,1,MP90,0.5335651107354802
48,3.643,1.0,-0.3815,0,MP90,1.2928075180264267
49,2.982,0.0,0.3815,0,MP90,1.0925942163425468
50,3.684,1.0,-0.3815,0,MP90,1.3039991183930604
51,2.929,0.0,0.3815,0,MP90,1.0746610678455963
52,4.56,0.0,0.3815,0,MP90,1.5173226235262947
53,3.104,1.0,-0.3815,0,MP90,1.1326916023209723
54,2.858,0.0,0.3815,0,MP90,1.0501220795076758
55,2.54,1.0,-0.3815,0,MP90,0.9321640810304452
56,2.655,1.0,0.3815,1,MP90,0.9764446546939021
57,2.931,0.0,0.3815,0,MP90,1.0753436617287555
58,2.52,0.0,0.3815,0,MP90,0.9242589015233319
59,2.052,0.0,0.3815,0,MP90,0.7188149273085231
60,4.291,1.0,0.3815,1,MP90,1.4565198060093878
61,1.683,1.0,0.3815,1,MP90,0.520577915208669
62,4.383,0.0,-0.3815,1,MP90,1.4777334214366722
63,3.052,1.0,-0.3815,0,MP90,1.1157971134222107
64,3.24,1.0,-0.3815,0,MP90,1.1755733298042381
65,4.085,1.0,0.3815,1,MP90,1.4073217283119661
66,4.092,0.0,-0.3815,1,MP90,1.40903384808938
67,2.885,1.0,-0.3815,0,MP90,1.0595248999600628
68,1.432,1.0,0.3815,1,MP90,0.3590720685384538
69,1.429,1.0,-0.3815,0,MP90,0.3569748989477304
70,3.228,0.0,0.3815,0,MP90,1.1718627504077024
71,2.692,0.0,0.3815,0,MP90,0.9902844117824814
72,2.994,1.0,-0.3815,0,MP90,1.0966102859974367
73,2.252,1.0,0.3815,1,MP90,0.8118187102774439
74,2.977,0.0,0.3815,0,MP90,1.0909160820336392
75,3.832,1.0,0.3815,1,MP90,1.343386860108614
76,1.384,1.0,0.3815,1,MP90,0.3249778571954777
77,1.667,0.0,-0.3815,1,MP90,0.511025603768657
78,4.099,1.0,-0.3815,0,MP90,1.4107430415222006
79,1.324,0.0,-0.3815,1,MP90,0.2806574575148165
80,1.803,1.0,-0.3815,0,MP90,0.5894519442211802
81,1.494,0.0,-0.3815,1,MP90,0.4014570867106256
82,1.411,1.0,0.3815,1,MP90,0.344298672870677
83,4.021,1.0,-0.3815,0,MP90,1.391530627915137
84,2.032,0.0,-0.3815,1,MP90,0.7090205297162355
85,2.757,1.0,0.3815,1,MP90,1.0141431320416596
86,0.067,0.0,0.3815,0,MP90,-2.703062659591171
87,1.523,0.0,-0.3815,1,MP90,0.4206820739130247
88,1.608,1.0,0.3815,1,MP90,0.47499117075677466
89,1.99,1.0,-0.3815,0,MP90,0.688134638736401
90,2.129,1.0,-0.3815,0,MP90,0.7556523859113424
91,1.809,1.0,0.3815,1,MP90,0.592774206413158
92,1.6,1.0,0.3815,1,MP90,0.47000362924573563
93,2.728,0.0,-0.3815,1,MP90,1.0035687399812157
94,1.29,1.0,-0.3815,0,MP90,0.25464221837358075
95,1.824,0.0,-0.3815,1,MP90,0.6010318916521397
96,2.071,1.0,-0.3815,0,MP90,0.7280315824134472
97,1.966,1.0,-0.3815,0,MP90,0.6760010217249748
98,2.295,1.0,0.3815,1,MP90,0.8307328435125084
99,1.862,1.0,-0.3815,0,MP90,0.6216511788548754
100,2.973,1.0,0.3815,1,MP90,1.0895715440159606
1,3.69,1.0,-0.3815,0,MP90,1.3056264580524357
2,2.221,0.0,-0.3815,1,MP90,0.7979575449122904
3,2.681,0.0,-0.3815,1,MP90,0.9861898592538223
4,1.215,0.0,-0.3815,1,MP90,0.19474407679251185
5,1.971,0.0,0.3815,0,MP90,0.6785410281705831
6,1.687,0.0,0.3815,0,MP90,0.5229518035638313
7,2.434,0.0,-0.3815,1,MP90,0.8895359945653355
8,2.147,1.0,0.3815,1,MP90,0.7640715188966439
9,2.423,0.0,-0.3815,1,MP90,0.8850064418343887
10,2.785,0.0,0.3815,0,MP90,1.0242478733792475
11,2.85,0.0,0.3815,0,MP90,1.0473189942805592
12,5.319,0.0,0.3815,0,MP90,1.6712853157601806
13,5.599,0.0,-0.3815,1,MP90,1.7225880103667564
14,5.848,1.0,0.3815,1,MP90,1.7660997224474773
15,2.129,1.0,0.3815,1,MP90,0.7556523859113424
16,1.474,0.0,-0.3815,1,MP90,0.38797979376714486
17,3.194,0.0,-0.3815,1,MP90,1.1612740497928207
18,3.609,0.0,0.3815,0,MP90,1.2834307256606514
19,3.233,0.0,0.3815,0,MP90,1.173410498743296
20,3.847,1.0,0.3815,1,MP90,1.347293623770158
21,5.207,1.0,0.3815,1,MP90,1.6500038741807619
22,1.261,0.0,-0.3815,1,MP90,0.2319050569827824
23,3.404,0.0,0.3815,0,MP90,1.2249512107111278
24,5.205,0.0,-0.3815,1,MP90,1.6496197020669323
25,3.108,0.0,0.3815,0,MP90,1.1339794325054011
26,3.653,1.0,-0.3815,0,MP90,1.2955487478131456
27,6.056,0.0,0.3815,0,MP90,1.8010495161351476
28,3.281,0.0,0.3815,0,MP90,1.1881482539789647
29,3.273,0.0,0.3815,0,MP90,1.1857069955190436
30,3.347,0.0,0.3815,0,MP90,1.2080644222291896
31,4.162,0.0,0.3815,0,MP90,1.4259957279714426
32,4.436,1.0,0.3815,1,MP90,1.4897530694881207
33,3.319,1.0,-0.3815,0,MP90,1.1996635327378375
34,2.84,1.0,0.3815,1,MP90,1.0438040521731147
35,3.276,0.0,0.3815,0,MP90,1.1866231659908228
36,8.263,0.0,0.3815,0,MP90,2.1117877177190474
37,5.341,1.0,-0.3815,0,MP90,1.6754129013576333
38,4.202,1.0,-0.3815,0,MP90,1.4355606024228087
39,3.04,0.0,-0.3815,1,MP90,1.1118575154181303
40,4.806,1.0,-0.3815,0,MP90,1.5698651373142771
41,5.914,1.0,0.3815,1,MP90,1.7773224214302854
42,6.451,0.0,-0.3815,1,MP90,1.8642351575501046
43,5.77,1.0,0.3815,1,MP90,1.7526720805200082
44,5.653,0.0,-0.3815,1,MP90,1.7321863776931536
45,7.227,1.0,0.3815,1,MP90,1.9778240123008441
46,4.906,1.0,-0.3815,0,MP90,1.5904589458362974
47,5.385,0.0,-0.3815,1,MP90,1.6836173106083518
48,6.657,0.0,-0.3815,1,MP90,1.8956689326185665
49,6.8,0.0,-0.3815,1,MP90,1.916922612182061
50,7.856,0.0,0.3815,0,MP90,2.0612775710521647
51,3.973,1.0,-0.3815,0,MP90,1.379521476832462
52,2.328,1.0,0.3815,1,MP90,0.8450095298691913
53,2.142,1.0,0.3815,1,MP90,0.761739972025557
54,2.328,0.0,-0.3815,1,MP90,0.8450095298691913
55,1.714,1.0,0.3815,1,MP90,0.538829820175588
56,2.066,0.0,0.3815,0,MP90,0.7256143706974467
57,3.316,1.0,-0.3815,0,MP90,1.1987592372730485
58,3.932,0.0,-0.3815,1,MP90,1.3691482022849202
59,5.091,0.0,0.3815,0,MP90,1.627474274920199
60,5.325,0.0,-0.3815,1,MP90,1.6724127115954888
61,5.213,1.0,0.3815,1,MP90,1.6511555057859688
62,4.608,1.0,0.3815,1,MP90,1.52779392339359
63,6.776,1.0,-0.3815,0,MP90,1.9133869573497533
64,6.548,0.0,0.3815,0,MP90,1.8791596595088884
65,6.999,1.0,-0.3815,0,MP90,1.9457672817074025
66,6.15,1.0,-0.3815,0,MP90,1.8164520818184267
67,5.073,1.0,0.3815,1,MP90,1.623932358584553
68,6.266,0.0,0.3815,0,MP90,1.83513819253
69,2.231,1.0,0.3815,1,MP90,0.8024499154503955
70,2.231,0.0,-0.3815,1,MP90,0.8024499154503955
71,2.941,1.0,0.3815,1,MP90,1.078749659571858
72,5.549,0.0,-0.3815,1,MP90,1.7136177313437642
73,2.634,1.0,-0.3815,0,MP90,0.9685036033210893
74,3.055,0.0,0.3815,0,MP90,1.1167795926235586
75,3.614,0.0,0.3815,0,MP90,1.2848151921700368
76,5.234,1.0,-0.3815,0,MP90,1.655175804107954
77,4.461,0.0,-0.3815,1,MP90,1.4953729561461278
78,6.03,0.0,-0.3815,1,MP90,1.7967470107390942
79,1.729,1.0,0.3815,1,MP90,0.5475432067011535
80,2.866,1.0,-0.3815,0,MP90,1.0529173294059802
81,3.474,0.0,-0.3815,1,MP90,1.2453066678189133
82,3.995,0.0,0.3815,0,MP90,1.385043579218238
83,3.696,0.0,-0.3815,1,MP90,1.3072511537794378
NA,NA,NA,0.3815,0,MP90,NA
1,4.934,0.0,0.3815,0,MP90,1.596150018107165
2,2.571,1.0,0.3815,1,MP90,0.9442949282837525
3,3.276,1.0,0.3815,1,MP90,1.1866231659908228
4,3.503,0.0,-0.3815,1,MP90,1.2536197442153498
5,3.538,1.0,-0.3815,0,MP90,1.2635615957375934
6,2.654,1.0,0.3815,1,MP90,0.9760679359100157
7,3.821,0.0,-0.3815,1,MP90,1.340512168464763
8,3.026,1.0,0.3815,1,MP90,1.1072416153661642
9,1.841,1.0,-0.3815,0,MP90,0.6103089022509408
10,1.528,0.0,-0.3815,1,MP90,0.42395969074432877
11,6.259,0.0,-0.3815,1,MP90,1.8340204279425645
12,5.067,1.0,-0.3815,0,MP90,1.6227489264937727
13,3.488,0.0,0.3815,0,MP90,1.2493285060467332
14,3.335,1.0,-0.3815,0,MP90,1.204472679367587
15,1.788,1.0,-0.3815,0,MP90,0.5810976767513224
16,2.493,1.0,-0.3815,0,MP90,0.9134868045414208
1,2.297,1.0,0.197,1,RR92,0.8316039237069612
2,3.342,0.0,0.197,0,RR92,1.206569430173202
3,1.96,0.0,0.197,0,RR92,0.6729444732424258
4,2.515,1.0,0.197,1,RR92,0.9222728035517026
5,1.367,1.0,0.197,1,RR92,0.3126185577418125
6,1.43,1.0,-0.197,0,RR92,0.3576744442718159
7,2.16,1.0,-0.197,0,RR92,0.7701082216960737
8,1.645,0.0,0.197,0,RR92,0.49774038421733524
9,1.743,0.0,0.197,0,RR92,0.5556077665378839
10,1.615,1.0,0.197,1,RR92,0.47933495667461984
11,1.303,1.0,0.197,1,RR92,0.264669298142708
12,2.678,1.0,0.197,1,RR92,0.9850702472689807
13,2.51,0.0,0.197,0,RR92,0.9202827531436925
14,1.958,1.0,0.197,1,RR92,0.6719235441083187
15,1.647,0.0,0.197,0,RR92,0.4989554511955033
16,1.287,1.0,0.197,1,RR92,0.25231392861398955
17,1.659,0.0,0.197,0,RR92,0.5062150112083075
18,1.466,1.0,0.197,1,RR92,0.3825376034644597
19,1.359,1.0,0.197,1,RR92,0.30674913516900665
20,2.436,1.0,0.197,1,RR92,0.8903573498476506
21,1.424,1.0,0.197,1,RR92,0.353469812989784
22,1.609,0.0,-0.197,1,RR92,0.47561286801024616
23,1.064,1.0,0.197,1,RR92,0.0620353909194527
24,3.167,0.0,0.197,0,RR92,1.1527847675565026
25,2.105,1.0,0.197,1,RR92,0.7443154671343447
26,1.721,1.0,0.197,1,RR92,0.5429055172294024
27,1.97,0.0,0.197,0,RR92,0.6780335427498971
28,2.258,1.0,0.197,1,RR92,0.8144794657274703
29,2.065,0.0,0.197,0,RR92,0.7251302264129961
30,1.838,1.0,0.197,1,RR92,0.6086780239334953
31,1.776,1.0,-0.197,0,RR92,0.5743636445699783
32,1.477,1.0,0.197,1,RR92,0.39001300354924284
33,1.484,1.0,0.197,1,RR92,0.39474114474518873
34,1.229,1.0,0.197,1,RR92,0.20620083058389785
35,1.26,1.0,0.197,1,RR92,0.23111172096338664
36,1.913,0.0,-0.197,1,RR92,0.6486726904581158
37,2.279,1.0,0.197,1,RR92,0.8237367502635472
38,1.169,1.0,0.197,1,RR92,0.15614868248993138
39,1.352,1.0,0.197,1,RR92,0.3015849776207724
40,1.464,0.0,-0.197,1,RR92,0.3811724155391198
41,3.357,0.0,-0.197,1,RR92,1.211047717997898
42,1.378,1.0,0.197,1,RR92,0.3206331725914668
43,3.032,0.0,0.197,0,RR92,1.1092224677801252
44,1.982,0.0,0.197,0,RR92,0.6841064359077962
45,1.806,0.0,-0.197,1,RR92,0.5911144549947938
46,1.881,0.0,0.197,0,RR92,0.6318035503188933
47,1.744,1.0,0.197,1,RR92,0.5561813254867879
48,1.889,0.0,0.197,0,RR92,0.6360475885193725
49,1.799,0.0,-0.197,1,RR92,0.5872309549683961
50,2.17,0.0,0.197,0,RR92,0.7747271675523681
51,1.469,1.0,0.197,1,RR92,0.38458189719174035
52,2.255,0.0,0.197,0,RR92,0.8131499729546416
53,2.151,0.0,0.197,0,RR92,0.7659328502855929
54,2.56,0.0,0.197,0,RR92,0.9400072584914712
55,2.013,0.0,0.197,0,RR92,0.6996261466576544
56,1.889,0.0,0.197,0,RR92,0.6360475885193725
57,1.845,0.0,0.197,0,RR92,0.6124792774924905
58,1.996,0.0,-0.197,1,RR92,0.6911451778892722
59,1.97,0.0,0.197,0,RR92,0.6780335427498971
60,2.03,0.0,0.197,0,RR92,0.7080357930536959
61,1.933,0.0,0.197,0,RR92,0.6590732002261939
62,1.668,0.0,-0.197,1,RR92,0.5116253039365549
63,1.926,0.0,-0.197,1,RR92,0.6554453133759338
64,2.604,0.0,0.197,0,RR92,0.9570487243463228
65,1.529,0.0,-0.197,1,RR92,0.4246139269469252
66,1.867,0.0,-0.197,1,RR92,0.6243328645595856
67,1.669,1.0,0.197,1,RR92,0.5122246446796981
68,1.269,1.0,0.197,1,RR92,0.23822918873225055
69,1.25,1.0,0.197,1,RR92,0.22314355131420976
70,2.558,0.0,0.197,0,RR92,0.9392257031566509
71,2.081,0.0,0.197,0,RR92,0.7328485474114974
72,2.82,1.0,-0.197,0,RR92,1.0367368849500223
73,1.254,1.0,0.197,1,RR92,0.22633844221072896
74,0.986,1.0,0.197,1,RR92,-0.014098924379501648
75,1.834,1.0,0.197,1,RR92,0.6064993738342731
76,2.311,0.0,0.197,0,RR92,0.8376803312922436
77,2.486,0.0,0.197,0,RR92,0.9106749930885194
78,1.252,1.0,0.197,1,RR92,0.22474227267790678
79,1.519,1.0,0.197,1,RR92,0.41805222361363575
80,1.422,1.0,0.197,1,RR92,0.3520643313810491
81,2.181,0.0,0.197,0,RR92,0.779783487219492
82,1.195,1.0,0.197,1,RR92,0.17814618538347404
83,2.328,0.0,-0.197,1,RR92,0.8450095298691913
84,1.873,0.0,0.197,0,RR92,0.6275414234619514
85,1.807,0.0,0.197,0,RR92,0.5916680116100914
86,1.972,1.0,0.197,1,RR92,0.6790482561804436
87,2.116,0.0,0.197,0,RR92,0.749527513996053
88,1.985,0.0,0.197,0,RR92,0.6856189141391538
89,1.767,0.0,-0.197,1,RR92,0.5692831933375593
90,2.279,0.0,0.197,0,RR92,0.8237367502635472
91,2.002,0.0,0.197,0,RR92,0.6941466808930288
92,2.068,0.0,-0.197,1,RR92,0.7265819566461827
93,2.023,0.0,0.197,0,RR92,0.7045815581856085
94,2.063,1.0,0.197,1,RR92,0.7241612340891148
95,1.987,1.0,0.197,1,RR92,0.6866259635696799
96,3.175,0.0,-0.197,1,RR92,1.155307632344655
97,1.993,0.0,0.197,0,RR92,0.6896410412306577
98,2.456,0.0,0.197,0,RR92,0.898534010284896
99,2.075,1.0,-0.197,0,RR92,0.7299611536826617
100,1.948,0.0,0.197,0,RR92,0.6668032052203433
1,1.847,0.0,0.197,0,RR92,0.6135627012171029
2,2.042,0.0,0.197,0,RR92,0.7139297197424738
3,1.378,1.0,0.197,1,RR92,0.3206331725914668
4,1.317,1.0,0.197,1,RR92,0.2753564227611439
5,1.261,1.0,0.197,1,RR92,0.2319050569827824
6,1.061,0.0,-0.197,1,RR92,0.059211859631846026
7,1.352,0.0,-0.197,1,RR92,0.3015849776207724
8,1.377,0.0,0.197,0,RR92,0.3199072197465178
9,1.168,1.0,0.197,1,RR92,0.15529288440603525
10,1.591,0.0,0.197,0,RR92,0.4643627493556498
11,1.951,1.0,0.197,1,RR92,0.6683420616409742
12,1.287,1.0,0.197,1,RR92,0.25231392861398955
13,1.434,0.0,0.197,0,RR92,0.36046774217742855
14,1.84,1.0,0.197,1,RR92,0.6097655716208943
15,1.16,1.0,0.197,1,RR92,0.14842000511827322
16,1.262,0.0,0.197,0,RR92,0.2326977641190214
17,1.675,1.0,0.197,1,RR92,0.5158131652770298
18,1.353,1.0,0.197,1,RR92,0.302324349188651
19,2.279,0.0,0.197,0,RR92,0.8237367502635472
20,1.552,1.0,0.197,1,RR92,0.43954442176102704
21,1.405,1.0,0.197,1,RR92,0.3400373027857091
22,1.873,0.0,0.197,0,RR92,0.6275414234619514
23,2.423,0.0,0.197,0,RR92,0.8850064418343887
24,2.161,0.0,0.197,0,RR92,0.770571077524749
25,1.628,0.0,0.197,0,RR92,0.4873522675803485
26,1.457,1.0,0.197,1,RR92,0.37637952721306783
27,2.03,0.0,0.197,0,RR92,0.7080357930536959
28,1.669,0.0,0.197,0,RR92,0.5122246446796981
29,2.117,0.0,0.197,0,RR92,0.7499999921527281
30,1.911,0.0,0.197,0,RR92,0.647626665258136
31,1.477,1.0,0.197,1,RR92,0.39001300354924284
32,1.269,0.0,-0.197,1,RR92,0.23822918873225055
33,1.756,1.0,0.197,1,RR92,0.5630384952129249
34,2.598,1.0,-0.197,0,RR92,0.9547419182484077
35,1.837,0.0,-0.197,1,RR92,0.6081338062329886
36,2.066,0.0,0.197,0,RR92,0.7256143706974467
37,1.791,0.0,0.197,0,RR92,0.5827741230785747
38,1.453,0.0,0.197,0,RR92,0.3736303845881459
39,2.285,1.0,-0.197,0,RR92,0.8263660243461681
40,2.573,0.0,-0.197,1,RR92,0.945072533299607
41,2.247,0.0,0.197,0,RR92,0.8095959932031921
42,1.51,1.0,0.197,1,RR92,0.412109650826833
43,1.844,0.0,0.197,0,RR92,0.6119371251344021
44,1.809,0.0,0.197,0,RR92,0.592774206413158
45,1.855,0.0,0.197,0,RR92,0.6178846960593984
46,1.921,1.0,0.197,1,RR92,0.6528458837864196
47,1.676,1.0,0.197,1,RR92,0.5164100020598913
48,1.304,0.0,0.197,0,RR92,0.26543646350446126
49,1.714,0.0,0.197,0,RR92,0.538829820175588
50,2.361,0.0,-0.197,1,RR92,0.859085258103376
51,2.382,0.0,0.197,0,RR92,0.8679404709331084
52,2.532,0.0,0.197,0,RR92,0.9290095042819297
53,2.312,0.0,0.197,0,RR92,0.8381129508101309
54,2.347,0.0,0.197,0,RR92,0.8531379168688864
55,1.872,0.0,0.197,0,RR92,0.6270073780554004
56,1.966,0.0,-0.197,1,RR92,0.6760010217249748
57,1.598,0.0,-0.197,1,RR92,0.46875284734408296
58,1.918,0.0,0.197,0,RR92,0.6512829764612464
