trialno,rt,response,intensity,accuracy,id
1,7.995,0.0,-0.3255,1,VH88
2,1.247,1.0,-0.3255,0,VH88
3,1.823,0.0,0.3225,0,VH88
4,0.88,1.0,0.3225,1,VH88
5,1.472,1.0,0.3225,1,VH88
6,1.098,1.0,0.3225,1,VH88
7,1.166,0.0,-0.3255,1,VH88
8,1.229,1.0,0.3225,1,VH88
9,1.284,0.0,-0.3255,1,VH88
10,1.603,1.0,0.3225,1,VH88
11,1.53,1.0,0.3225,1,VH88
12,1.796,1.0,0.3225,1,VH88
13,1.155,0.0,0.3225,0,VH88
14,1.407,1.0,0.3225,1,VH88
15,1.695,1.0,0.3225,1,VH88
16,1.138,1.0,0.3225,1,VH88
17,1.268,1.0,0.3225,1,VH88
18,1.377,1.0,0.3225,1,VH88
19,1.386,1.0,-0.3255,0,VH88
20,1.126,1.0,0.3225,1,VH88
21,2.747,0.0,0.3225,0,VH88
22,1.173,1.0,0.3225,1,VH88
23,1.124,0.0,-0.3255,1,VH88
24,1.357,1.0,0.3225,1,VH88
25,2.353,0.0,0.3225,0,VH88
26,1.121,1.0,-0.3255,0,VH88
27,1.727,1.0,0.3225,1,VH88
28,1.702,1.0,0.3225,1,VH88
29,1.699,1.0,0.3225,1,VH88
30,1.654,0.0,0.3225,0,VH88
31,1.3,1.0,0.3225,1,VH88
32,1.524,0.0,0.3225,0,VH88
33,1.117,1.0,0.3225,1,VH88
34,1.256,1.0,0.3225,1,VH88
35,1.114,1.0,0.3225,1,VH88
36,1.212,1.0,0.3225,1,VH88
37,1.248,0.0,-0.3255,1,VH88
38,1.488,1.0,-0.3255,0,VH88
39,1.097,1.0,0.3225,1,VH88
40,1.255,1.0,0.3225,1,VH88
41,1.767,1.0,0.3225,1,VH88
42,2.108,1.0,0.3225,1,VH88
43,2.013,0.0,0.3225,0,VH88
44,1.511,0.0,0.3225,0,VH88
45,1.049,1.0,0.3225,1,VH88
46,1.26,0.0,0.3225,0,VH88
47,1.577,0.0,-0.3255,1,VH88
48,1.126,1.0,0.3225,1,VH88
49,1.253,1.0,0.3225,1,VH88
50,1.258,1.0,0.3225,1,VH88
51,1.843,1.0,-0.3255,0,VH88
52,1.878,0.0,0.3225,0,VH88
53,1.052,1.0,0.3225,1,VH88
54,1.003,0.0,0.3225,0,VH88
55,1.198,1.0,0.3225,1,VH88
56,0.977,1.0,0.3225,1,VH88
57,1.755,0.0,0.3225,0,VH88
58,1.226,1.0,0.3225,1,VH88
59,1.044,0.0,0.3225,0,VH88
60,1.074,1.0,0.3225,1,VH88
61,1.128,0.0,0.3225,0,VH88
62,1.341,1.0,0.3225,1,VH88
63,1.235,0.0,0.3225,0,VH88
64,1.018,1.0,0.3225,1,VH88
65,1.256,1.0,0.3225,1,VH88
66,1.153,1.0,0.3225,1,VH88
67,1.221,0.0,0.3225,0,VH88
68,1.743,0.0,0.3225,0,VH88
69,1.445,0.0,-0.3255,1,VH88
70,1.677,0.0,-0.3255,1,VH88
71,1.697,0.0,-0.3255,1,VH88
72,1.257,1.0,0.3225,1,VH88
73,1.747,1.0,0.3225,1,VH88
74,1.032,0.0,0.3225,0,VH88
75,1.267,1.0,0.3225,1,VH88
76,1.7,0.0,0.3225,0,VH88
77,1.752,1.0,0.3225,1,VH88
78,1.258,0.0,0.3225,0,VH88
79,1.196,1.0,-0.3255,0,VH88
80,2.233,1.0,0.3225,1,VH88
81,1.484,1.0,0.3225,1,VH88
82,1.0,0.0,0.3225,0,VH88
83,1.882,1.0,0.3225,1,VH88
84,1.717,0.0,0.3225,0,VH88
85,1.212,0.0,-0.3255,1,VH88
86,2.15,1.0,-0.3255,0,VH88
87,0.987,0.0,-0.3255,1,VH88
88,0.996,1.0,0.3225,1,VH88
89,0.993,0.0,0.3225,0,VH88
90,1.863,0.0,0.3225,0,VH88
91,1.413,1.0,-0.3255,0,VH88
92,2.299,1.0,0.3225,1,VH88
93,3.052,1.0,0.3225,1,VH88
94,1.425,0.0,0.3225,0,VH88
95,1.192,1.0,0.3225,1,VH88
96,1.398,1.0,-0.3255,0,VH88
97,1.031,0.0,0.3225,0,VH88
98,1.139,0.0,0.3225,0,VH88
99,1.744,0.0,0.3225,0,VH88
100,2.011,1.0,0.3225,1,VH88
1,1.863,1.0,0.3225,1,VH88
2,0.999,1.0,0.3225,1,VH88
3,1.162,1.0,0.3225,1,VH88
4,0.91,1.0,0.3225,1,VH88
5,0.925,1.0,-0.3255,0,VH88
6,0.825,1.0,0.3225,1,VH88
7,0.931,1.0,0.3225,1,VH88
8,1.057,1.0,0.3225,1,VH88
9,0.944,1.0,-0.3255,0,VH88
10,1.246,1.0,0.3225,1,VH88
11,1.31,1.0,0.3225,1,VH88
12,1.616,1.0,0.3225,1,VH88
13,1.65,1.0,0.3225,1,VH88
14,1.346,1.0,0.3225,1,VH88
15,1.462,1.0,0.3225,1,VH88
16,1.775,0.0,0.3225,0,VH88
17,1.267,0.0,0.3225,0,VH88
18,1.483,0.0,0.3225,0,VH88
19,1.126,0.0,0.3225,0,VH88
20,1.525,0.0,0.3225,0,VH88
21,1.222,1.0,0.3225,1,VH88
22,1.24,1.0,0.3225,1,VH88
23,1.504,0.0,-0.3255,1,VH88
24,1.714,0.0,-0.3255,1,VH88
25,0.937,0.0,0.3225,0,VH88
26,2.384,1.0,-0.3255,0,VH88
27,2.725,0.0,0.3225,0,VH88
28,1.008,0.0,0.3225,0,VH88
29,1.53,1.0,-0.3255,0,VH88
30,1.021,1.0,0.3225,1,VH88
31,1.2,1.0,0.3225,1,VH88
32,1.196,1.0,0.3225,1,VH88
33,1.435,1.0,0.3225,1,VH88
34,1.3,0.0,0.3225,0,VH88
35,1.159,0.0,-0.3255,1,VH88
36,1.408,1.0,-0.3255,0,VH88
37,1.58,1.0,0.3225,1,VH88
38,1.323,1.0,0.3225,1,VH88
39,1.235,1.0,0.3225,1,VH88
40,1.221,0.0,-0.3255,1,VH88
41,1.658,1.0,0.3225,1,VH88
42,1.362,0.0,-0.3255,1,VH88
43,1.23,0.0,-0.3255,1,VH88
44,1.727,0.0,0.3225,0,VH88
45,2.715,1.0,0.3225,1,VH88
46,1.812,1.0,0.3225,1,VH88
47,1.945,0.0,0.3225,0,VH88
48,1.096,0.0,0.3225,0,VH88
49,1.549,0.0,0.3225,0,VH88
50,2.275,1.0,0.3225,1,VH88
51,1.68,1.0,0.3225,1,VH88
52,1.329,0.0,0.3225,0,VH88
53,1.241,1.0,0.3225,1,VH88
54,1.47,0.0,0.3225,0,VH88
55,1.269,1.0,-0.3255,0,VH88
56,1.936,1.0,0.3225,1,VH88
57,2.359,1.0,0.3225,1,VH88
58,2.145,0.0,0.3225,0,VH88
59,1.978,1.0,0.3225,1,VH88
60,3.617,1.0,-0.3255,0,VH88
61,1.523,1.0,-0.3255,0,VH88
62,1.807,0.0,0.3225,0,VH88
63,2.018,0.0,-0.3255,1,VH88
64,3.806,1.0,0.3225,1,VH88
65,1.135,0.0,0.3225,0,VH88
66,1.527,1.0,0.3225,1,VH88
67,1.314,0.0,0.3225,0,VH88
68,2.118,0.0,0.3225,0,VH88
69,1.486,0.0,0.3225,0,VH88
70,2.97,0.0,0.3225,0,VH88
71,1.667,1.0,0.3225,1,VH88
72,2.379,1.0,0.3225,1,VH88
73,1.606,0.0,0.3225,0,VH88
74,1.116,0.0,0.3225,0,VH88
75,1.681,1.0,0.3225,1,VH88
76,1.193,0.0,0.3225,0,VH88
77,2.155,1.0,0.3225,1,VH88
78,2.333,0.0,0.3225,0,VH88
79,1.581,0.0,-0.3255,1,VH88
80,1.964,0.0,-0.3255,1,VH88
81,2.85,1.0,0.3225,1,VH88
82,1.096,0.0,0.3225,0,VH88
83,3.35,0.0,0.3225,0,VH88
84,1.986,1.0,0.3225,1,VH88
85,1.578,1.0,0.3225,1,VH88
86,1.606,0.0,0.3225,0,VH88
87,1.774,1.0,0.3225,1,VH88
88,2.006,0.0,0.3225,0,VH88
89,1.749,1.0,0.3225,1,VH88
90,1.691,0.0,-0.3255,1,VH88
91,2.72,0.0,-0.3255,1,VH88
92,2.57,0.0,0.3225,0,VH88
93,1.374,0.0,0.3225,0,VH88
94,1.5,1.0,0.3225,1,VH88
95,1.068,0.0,-0.3255,1,VH88
96,1.881,1.0,0.3225,1,VH88
97,2.755,0.0,0.3225,0,VH88
98,1.032,1.0,0.3225,1,VH88
99,1.912,1.0,0.3225,1,VH88
100,2.09,1.0,0.3225,1,VH88
1,1.075,1.0,-0.3255,0,VH88
2,0.805,1.0,0.3225,1,VH88
3,0.767,1.0,0.3225,1,VH88
4,0.797,0.0,-0.3255,1,VH88
5,0.932,1.0,0.3225,1,VH88
6,0.937,0.0,-0.3255,1,VH88
7,1.211,1.0,0.3225,1,VH88
8,3.313,0.0,0.3225,0,VH88
9,2.169,0.0,0.3225,0,VH88
10,1.62,1.0,0.3225,1,VH88
11,1.175,0.0,0.3225,0,VH88
12,1.211,1.0,0.3225,1,VH88
13,1.558,0.0,-0.3255,1,VH88
14,2.93,0.0,0.3225,0,VH88
15,1.35,1.0,-0.3255,0,VH88
16,1.004,1.0,0.3225,1,VH88
17,1.612,1.0,0.3225,1,VH88
18,1.365,1.0,-0.3255,0,VH88
19,1.398,1.0,-0.3255,0,VH88
20,1.882,1.0,0.3225,1,VH88
21,1.015,0.0,0.3225,0,VH88
22,2.611,1.0,0.3225,1,VH88
23,2.538,1.0,0.3225,1,VH88
24,1.435,1.0,0.3225,1,VH88
25,1.207,1.0,0.3225,1,VH88
26,2.104,1.0,0.3225,1,VH88
27,1.267,0.0,0.3225,0,VH88
28,1.904,1.0,0.3225,1,VH88
29,1.493,0.0,0.3225,0,VH88
30,1.479,1.0,0.3225,1,VH88
31,2.11,1.0,0.3225,1,VH88
32,1.159,0.0,0.3225,0,VH88
33,2.334,1.0,0.3225,1,VH88
34,0.985,0.0,0.3225,0,VH88
35,2.087,1.0,0.3225,1,VH88
36,1.151,1.0,0.3225,1,VH88
37,1.18,0.0,0.3225,0,VH88
38,1.127,0.0,0.3225,0,VH88
39,1.284,0.0,-0.3255,1,VH88
40,1.444,1.0,-0.3255,0,VH88
41,1.189,0.0,0.3225,0,VH88
42,1.067,1.0,0.3225,1,VH88
43,1.235,1.0,0.3225,1,VH88
44,1.793,1.0,0.3225,1,VH88
45,1.68,0.0,-0.3255,1,VH88
46,1.707,1.0,0.3225,1,VH88
47,1.369,0.0,0.3225,0,VH88
48,1.128,1.0,0.3225,1,VH88
49,1.483,1.0,-0.3255,0,VH88
50,1.399,1.0,0.3225,1,VH88
51,1.162,0.0,0.3225,0,VH88
52,1.812,1.0,0.3225,1,VH88
53,1.712,0.0,0.3225,0,VH88
54,1.984,1.0,0.3225,1,VH88
55,1.336,1.0,0.3225,1,VH88
56,1.504,1.0,0.3225,1,VH88
57,2.894,1.0,0.3225,1,VH88
58,1.34,0.0,0.3225,0,VH88
59,2.674,0.0,0.3225,0,VH88
60,1.887,1.0,0.3225,1,VH88
61,2.467,0.0,0.3225,0,VH88
62,2.233,1.0,0.3225,1,VH88
63,2.036,0.0,0.3225,0,VH88
64,1.358,1.0,-0.3255,0,VH88
65,1.08,1.0,0.3225,1,VH88
66,1.41,1.0,-0.3255,0,VH88
67,1.257,0.0,0.3225,0,VH88
68,1.216,1.0,0.3225,1,VH88
69,1.841,0.0,-0.3255,1,VH88
70,3.432,0.0,-0.3255,1,VH88
71,21.385,0.0,0.3225,0,VH88
72,1.802,0.0,0.3225,0,VH88
73,0.52,1.0,0.3225,1,VH88
74,1.168,0.0,0.3225,0,VH88
75,1.089,1.0,0.3225,1,VH88
76,1.23,0.0,0.3225,0,VH88
77,0.94,1.0,-0.3255,0,VH88
78,0.854,1.0,0.3225,1,VH88
79,1.049,1.0,0.3225,1,VH88
80,1.169,1.0,0.3225,1,VH88
81,0.954,1.0,0.3225,1,VH88
82,1.623,0.0,-0.3255,1,VH88
83,0.978,1.0,0.3225,1,VH88
84,1.416,1.0,0.3225,1,VH88
85,1.346,0.0,-0.3255,1,VH88
86,1.258,1.0,0.3225,1,VH88
87,1.216,0.0,0.3225,0,VH88
88,1.058,0.0,-0.3255,1,VH88
89,2.037,1.0,0.3225,1,VH88
90,1.716,0.0,0.3225,0,VH88
91,1.334,1.0,0.3225,1,VH88
92,1.234,0.0,0.3225,0,VH88
93,1.297,1.0,0.3225,1,VH88
94,1.384,0.0,0.3225,0,VH88
95,1.296,1.0,0.3225,1,VH88
96,2.402,0.0,0.3225,0,VH88
97,1.177,1.0,0.3225,1,VH88
98,1.695,0.0,0.3225,0,VH88
99,2.577,1.0,0.3225,1,VH88
100,4.642,0.0,-0.3255,1,VH88
1,1.22,1.0,0.3225,1,VH88
2,1.653,1.0,-0.3225,0,VH88
3,1.511,1.0,-0.3225,0,VH88
4,1.438,1.0,-0.3225,0,VH88
5,1.208,1.0,0.3225,1,VH88
6,1.235,1.0,-0.3225,0,VH88
7,1.653,1.0,-0.3225,0,VH88
8,2.209,1.0,-0.3225,0,VH88
9,1.636,0.0,-0.3225,1,VH88
10,1.426,0.0,-0.3225,1,VH88
11,1.247,0.0,-0.3225,1,VH88
12,1.28,0.0,-0.3225,1,VH88
13,1.13,1.0,0.3225,1,VH88
14,1.116,0.0,-0.3225,1,VH88
15,0.997,1.0,-0.3225,0,VH88
16,0.821,0.0,-0.3225,1,VH88
17,1.505,1.0,0.3225,1,VH88
18,1.559,1.0,0.3225,1,VH88
19,1.283,0.0,0.3225,0,VH88
20,1.945,1.0,-0.3225,0,VH88
21,1.898,1.0,0.3225,1,VH88
22,1.739,1.0,0.3225,1,VH88
23,0.942,0.0,-0.3225,1,VH88
24,1.37,1.0,0.3225,1,VH88
25,1.931,1.0,0.3225,1,VH88
26,0.932,0.0,0.3225,0,VH88
27,3.036,0.0,0.3225,0,VH88
28,1.257,0.0,0.3225,0,VH88
29,1.259,1.0,0.3225,1,VH88
30,1.313,1.0,0.3225,1,VH88
31,0.973,1.0,-0.3225,0,VH88
32,1.06,1.0,0.3225,1,VH88
33,2.161,0.0,-0.3225,1,VH88
34,1.451,1.0,-0.3225,0,VH88
35,3.09,0.0,0.3225,0,VH88
36,1.256,1.0,-0.3225,0,VH88
37,1.964,1.0,-0.3225,0,VH88
38,1.383,1.0,0.3225,1,VH88
39,1.847,1.0,-0.3225,0,VH88
40,1.747,1.0,0.3225,1,VH88
41,1.376,1.0,0.3225,1,VH88
42,1.314,1.0,-0.3225,0,VH88
43,1.562,0.0,-0.3225,1,VH88
44,1.487,0.0,0.3225,0,VH88
45,1.642,1.0,-0.3225,0,VH88
46,2.449,1.0,0.3225,1,VH88
47,1.527,0.0,-0.3225,1,VH88
48,1.548,1.0,0.3225,1,VH88
49,1.184,0.0,0.3225,0,VH88
50,1.24,1.0,0.3225,1,VH88
51,1.214,1.0,0.3225,1,VH88
52,1.076,1.0,0.3225,1,VH88
53,1.859,0.0,-0.3225,1,VH88
54,1.146,1.0,-0.3225,0,VH88
55,1.199,1.0,0.3225,1,VH88
56,1.226,0.0,0.3225,0,VH88
57,1.041,0.0,-0.3225,1,VH88
58,2.039,1.0,0.3225,1,VH88
59,1.9,1.0,-0.3225,0,VH88
60,3.167,1.0,0.3225,1,VH88
61,1.009,0.0,-0.3225,1,VH88
62,1.356,1.0,-0.3225,0,VH88
63,1.92,1.0,0.3225,1,VH88
64,1.534,1.0,0.3225,1,VH88
65,1.464,0.0,-0.3225,1,VH88
66,1.111,0.0,-0.3225,1,VH88
67,1.167,1.0,-0.3225,0,VH88
68,0.934,1.0,0.3225,1,VH88
69,1.052,1.0,0.3225,1,VH88
70,3.888,1.0,-0.3225,0,VH88
71,1.909,1.0,-0.3225,0,VH88
72,1.356,1.0,0.3225,1,VH88
73,0.995,0.0,-0.3225,1,VH88
74,1.887,0.0,-0.3225,1,VH88
75,1.894,0.0,0.3225,0,VH88
76,2.36,0.0,-0.3225,1,VH88
77,1.528,1.0,0.3225,1,VH88
78,5.47,0.0,0.3225,0,VH88
79,2.422,1.0,0.3225,1,VH88
80,1.95,1.0,-0.3225,0,VH88
81,2.114,0.0,-0.3225,1,VH88
82,1.083,0.0,-0.3225,1,VH88
83,1.399,0.0,-0.3225,1,VH88
84,2.356,1.0,-0.3225,0,VH88
85,1.742,1.0,-0.3225,0,VH88
86,3.422,0.0,0.3225,0,VH88
87,1.518,1.0,-0.3225,0,VH88
88,1.338,1.0,0.3225,1,VH88
89,1.122,1.0,0.3225,1,VH88
90,1.691,1.0,0.3225,1,VH88
91,1.267,1.0,0.3225,1,VH88
92,1.324,1.0,0.3225,1,VH88
93,1.268,1.0,0.3225,1,VH88
94,0.898,0.0,-0.3225,1,VH88
95,1.156,0.0,-0.3225,1,VH88
96,1.047,1.0,-0.3225,0,VH88
97,2.135,0.0,0.3225,0,VH88
98,1.181,0.0,0.3225,0,VH88
99,1.037,1.0,0.3225,1,VH88
100,2.312,1.0,-0.3225,0,VH88
1,2.495,1.0,0.3225,1,VH88
2,2.391,0.0,-0.3225,1,VH88
3,1.003,0.0,0.3225,0,VH88
4,2.142,1.0,-0.3225,0,VH88
5,1.499,1.0,-0.3225,0,VH88
6,0.961,1.0,0.3225,1,VH88
7,0.972,1.0,0.3225,1,VH88
8,1.264,1.0,0.3225,1,VH88
9,2.579,0.0,-0.3225,1,VH88
10,1.223,0.0,0.3225,0,VH88
11,2.048,0.0,-0.3225,1,VH88
12,0.985,0.0,-0.3225,1,VH88
13,1.179,1.0,-0.3225,0,VH88
14,0.978,1.0,0.3225,1,VH88
15,2.649,0.0,-0.3225,1,VH88
16,1.505,0.0,-0.3225,1,VH88
17,1.024,0.0,0.3225,0,VH88
18,1.167,1.0,0.3225,1,VH88
19,3.28,1.0,-0.3225,0,VH88
20,0.944,0.0,-0.3225,1,VH88
21,1.16,0.0,-0.3225,1,VH88
22,0.986,0.0,-0.3225,1,VH88
23,1.241,1.0,-0.3225,0,VH88
24,1.33,1.0,-0.3225,0,VH88
25,2.23,0.0,-0.3225,1,VH88
26,1.188,1.0,0.3225,1,VH88
27,1.545,1.0,-0.3225,0,VH88
28,2.37,1.0,-0.3225,0,VH88
29,1.352,0.0,-0.3225,1,VH88
30,1.317,1.0,0.3225,1,VH88
31,2.884,0.0,0.3225,0,VH88
32,1.073,0.0,-0.3225,1,VH88
33,1.512,1.0,-0.3225,0,VH88
34,1.903,1.0,-0.3225,0,VH88
35,1.364,0.0,0.3225,0,VH88
36,1.137,1.0,0.3225,1,VH88
37,0.956,0.0,0.3225,0,VH88
38,0.894,1.0,0.3225,1,VH88
39,1.388,0.0,0.3225,0,VH88
40,1.278,1.0,0.3225,1,VH88
41,1.088,0.0,-0.3225,1,VH88
42,2.698,1.0,0.3225,1,VH88
43,1.239,0.0,0.3225,0,VH88
44,3.267,1.0,0.3225,1,VH88
45,1.421,1.0,0.3225,1,VH88
46,1.11,1.0,0.3225,1,VH88
47,1.191,1.0,0.3225,1,VH88
48,1.233,1.0,-0.3225,0,VH88
49,1.028,1.0,0.3225,1,VH88
50,1.495,0.0,-0.3225,1,VH88
51,1.199,1.0,0.3225,1,VH88
52,1.249,0.0,0.3225,0,VH88
53,1.077,0.0,0.3225,0,VH88
54,1.273,1.0,0.3225,1,VH88
55,0.968,0.0,0.3225,0,VH88
56,1.301,1.0,-0.3225,0,VH88
57,1.027,1.0,0.3225,1,VH88
58,1.281,1.0,0.3225,1,VH88
59,1.211,0.0,-0.3225,1,VH88
60,1.733,0.0,0.3225,0,VH88
61,1.73,1.0,0.3225,1,VH88
62,1.199,0.0,0.3225,0,VH88
63,1.322,1.0,-0.3225,0,VH88
64,1.427,0.0,-0.3225,1,VH88
65,1.314,1.0,0.3225,1,VH88
66,1.109,0.0,-0.3225,1,VH88
67,1.181,1.0,-0.3225,0,VH88
68,3.897,1.0,0.3225,1,VH88
69,1.603,1.0,0.3225,1,VH88
70,1.183,1.0,0.3225,1,VH88
71,0.891,1.0,-0.3225,0,VH88
72,1.906,1.0,0.3225,1,VH88
73,1.168,0.0,-0.3225,1,VH88
74,0.884,0.0,-0.3225,1,VH88
75,1.36,0.0,0.3225,0,VH88
76,1.111,1.0,0.3225,1,VH88
77,1.146,1.0,-0.3225,0,VH88
78,1.51,1.0,-0.3225,0,VH88
79,1.021,0.0,-0.3225,1,VH88
80,0.862,0.0,0.3225,0,VH88
81,1.275,1.0,0.3225,1,VH88
82,2.323,0.0,0.3225,0,VH88
83,1.461,1.0,0.3225,1,VH88
84,1.179,0.0,0.3225,0,VH88
85,0.89,0.0,-0.3225,1,VH88
86,1.257,1.0,0.3225,1,VH88
87,1.0,0.0,-0.3225,1,VH88
88,1.275,1.0,0.3225,1,VH88
89,1.576,1.0,-0.3225,0,VH88
90,0.927,0.0,-0.3225,1,VH88
91,1.192,0.0,-0.3225,1,VH88
92,1.147,0.0,-0.3225,1,VH88
93,3.526,0.0,-0.3225,1,VH88
94,2.693,1.0,-0.3225,0,VH88
95,1.293,0.0,-0.3225,1,VH88
96,1.713,1.0,-0.3225,0,VH88
97,2.234,0.0,-0.3225,1,VH88
98,0.991,1.0,0.3225,1,VH88
99,2.036,1.0,-0.3225,0,VH88
100,1.333,1.0,-0.3225,0,VH88
1,1.453,0.0,-0.3225,1,RA90
2,1.101,1.0,0.3225,1,RA90
3,1.075,1.0,0.3225,1,RA90
4,1.203,1.0,0.3225,1,RA90
5,0.98,1.0,0.3225,1,RA90
6,1.159,0.0,0.3225,0,RA90
7,1.086,0.0,0.3225,0,RA90
8,0.988,1.0,0.3225,1,RA90
9,1.024,1.0,0.3225,1,RA90
10,1.503,0.0,-0.3225,1,RA90
11,1.378,0.0,0.3225,0,RA90
12,1.415,1.0,0.3225,1,RA90
13,1.05,1.0,0.3225,1,RA90
14,1.949,0.0,0.3225,0,RA90
15,1.093,1.0,0.3225,1,RA90
16,1.667,0.0,0.3225,0,RA90
17,1.567,0.0,0.3225,0,RA90
18,1.756,1.0,0.3225,1,RA90
19,1.336,1.0,0.3225,1,RA90
20,1.083,0.0,-0.3225,1,RA90
21,1.204,0.0,-0.3225,1,RA90
22,1.377,1.0,0.3225,1,RA90
23,1.313,0.0,0.3225,0,RA90
24,1.399,0.0,0.3225,0,RA90
25,1.437,0.0,0.3225,0,RA90
26,1.269,0.0,0.3225,0,RA90
27,1.124,0.0,-0.3225,1,RA90
28,2.085,0.0,0.3225,0,RA90
29,1.417,0.0,0.3225,0,RA90
30,2.076,0.0,-0.3225,1,RA90
31,1.174,0.0,-0.3225,1,RA90
32,1.72,0.0,0.3225,0,RA90
33,1.449,0.0,0.3225,0,RA90
34,1.485,1.0,0.3225,1,RA90
35,1.65,0.0,0.3225,0,RA90
36,1.571,1.0,0.3225,1,RA90
37,2.553,0.0,0.3225,0,RA90
38,1.155,0.0,-0.3225,1,RA90
39,1.099,1.0,0.3225,1,RA90
40,1.118,1.0,0.3225,1,RA90
41,1.158,1.0,0.3225,1,RA90
42,1.501,1.0,0.3225,1,RA90
43,1.836,1.0,0.3225,1,RA90
44,1.583,1.0,0.3225,1,RA90
45,1.151,1.0,-0.3225,0,RA90
46,1.65,1.0,0.3225,1,RA90
47,1.105,0.0,0.3225,0,RA90
48,1.032,0.0,0.3225,0,RA90
49,1.648,1.0,0.3225,1,RA90
50,2.053,0.0,-0.3225,1,RA90
51,1.084,1.0,0.3225,1,RA90
52,0.943,0.0,-0.3225,1,RA90
53,0.906,1.0,0.3225,1,RA90
54,1.031,1.0,-0.3225,0,RA90
55,1.112,1.0,0.3225,1,RA90
56,1.224,1.0,0.3225,1,RA90
57,1.219,1.0,0.3225,1,RA90
58,1.403,1.0,0.3225,1,RA90
59,1.646,0.0,0.3225,0,RA90
60,1.159,1.0,0.3225,1,RA90
61,1.585,1.0,0.3225,1,RA90
62,1.14,1.0,0.3225,1,RA90
63,1.085,1.0,0.3225,1,RA90
64,1.413,1.0,0.3225,1,RA90
65,1.264,0.0,-0.3225,1,RA90
66,1.389,1.0,0.3225,1,RA90
67,1.642,1.0,0.3225,1,RA90
68,1.54,1.0,0.3225,1,RA90
69,1.934,1.0,0.3225,1,RA90
70,1.113,0.0,-0.3225,1,RA90
71,1.931,1.0,0.3225,1,RA90
72,1.528,0.0,-0.3225,1,RA90
73,1.272,1.0,0.3225,1,RA90
74,1.166,0.0,0.3225,0,RA90
75,1.848,0.0,0.3225,0,RA90
76,1.43,1.0,0.3225,1,RA90
77,1.09,0.0,-0.3225,1,RA90
78,1.095,1.0,0.3225,1,RA90
79,2.096,0.0,0.3225,0,RA90
80,1.519,0.0,0.3225,0,RA90
81,1.997,0.0,0.3225,0,RA90
82,1.57,0.0,-0.3225,1,RA90
83,1.634,1.0,0.3225,1,RA90
84,2.267,0.0,0.3225,0,RA90
85,2.194,1.0,0.3225,1,RA90
86,1.512,1.0,0.3225,1,RA90
87,1.684,0.0,0.3225,0,RA90
88,1.252,1.0,0.3225,1,RA90
89,1.203,1.0,0.3225,1,RA90
90,1.966,1.0,0.3225,1,RA90
91,1.492,0.0,-0.3225,1,RA90
92,1.24,0.0,-0.3225,1,RA90
93,1.053,0.0,0.3225,0,RA90
94,1.763,1.0,0.3225,1,RA90
95,2.104,1.0,0.3225,1,RA90
96,2.942,0.0,-0.3225,1,RA90
97,1.431,1.0,0.3225,1,RA90
98,1.712,1.0,0.3225,1,RA90
99,1.502,0.0,0.3225,0,RA90
100,2.08,0.0,0.3225,0,RA90
1,2.04,1.0,0.3225,1,RA90
2,1.168,1.0,0.3225,1,RA90
3,1.041,1.0,0.3225,1,RA90
4,1.121,1.0,0.3225,1,RA90
5,1.112,0.0,0.3225,0,RA90
6,1.231,1.0,0.3225,1,RA90
7,1.452,1.0,0.3225,1,RA90
8,1.317,1.0,0.3225,1,RA90
9,0.854,1.0,0.3225,1,RA90
10,1.051,1.0,0.3225,1,RA90
11,1.448,1.0,0.3225,1,RA90
12,1.355,1.0,0.3225,1,RA90
13,1.007,1.0,0.3225,1,RA90
14,1.348,1.0,0.3225,1,RA90
15,1.842,1.0,-0.3225,0,RA90
16,1.529,1.0,-0.3225,0,RA90
17,1.921,0.0,0.3225,0,RA90
18,1.946,1.0,0.3225,1,RA90
19,1.763,0.0,0.3225,0,RA90
20,1.202,1.0,0.3225,1,RA90
21,1.007,1.0,0.3225,1,RA90
22,1.472,1.0,0.3225,1,RA90
23,1.421,1.0,0.3225,1,RA90
24,1.241,0.0,-0.3225,1,RA90
25,1.304,0.0,-0.3225,1,RA90
26,1.129,0.0,0.3225,0,RA90
27,1.444,0.0,0.3225,0,RA90
28,2.216,0.0,0.3225,0,RA90
29,1.842,0.0,0.3225,0,RA90
30,2.293,0.0,0.3225,0,RA90
31,1.713,1.0,0.3225,1,RA90
32,1.652,0.0,-0.3225,1,RA90
33,1.129,1.0,0.3225,1,RA90
34,1.486,0.0,0.3225,0,RA90
35,2.377,0.0,0.3225,0,RA90
36,1.111,0.0,-0.3225,1,RA90
37,1.036,0.0,0.3225,0,RA90
38,1.538,1.0,-0.3225,0,RA90
39,1.13,1.0,0.3225,1,RA90
40,1.368,0.0,0.3225,0,RA90
41,1.077,0.0,-0.3225,1,RA90
42,1.326,0.0,0.3225,0,RA90
43,2.013,0.0,0.3225,0,RA90
44,1.489,1.0,0.3225,1,RA90
45,1.771,1.0,0.3225,1,RA90
46,2.565,0.0,0.3225,0,RA90
47,1.973,1.0,0.3225,1,RA90
48,1.614,0.0,0.3225,0,RA90
49,1.266,1.0,0.3225,1,RA90
50,1.77,0.0,0.3225,0,RA90
51,1.439,1.0,0.3225,1,RA90
52,1.416,0.0,-0.3225,1,RA90
53,1.577,0.0,0.3225,0,RA90
54,1.412,1.0,0.3225,1,RA90
55,1.745,0.0,0.3225,0,RA90
56,1.292,1.0,0.3225,1,RA90
57,1.628,1.0,-0.3225,0,RA90
58,1.225,0.0,0.3225,0,RA90
59,1.622,1.0,0.3225,1,RA90
60,1.403,1.0,0.3225,1,RA90
61,1.772,0.0,-0.3225,1,RA90
62,1.255,1.0,0.3225,1,RA90
63,1.099,0.0,-0.3225,1,RA90
64,1.131,0.0,0.3225,0,RA90
65,2.017,0.0,-0.3225,1,RA90
66,1.239,0.0,0.3225,0,RA90
67,1.31,1.0,0.3225,1,RA90
68,1.385,1.0,0.3225,1,RA90
69,2.856,1.0,0.3225,1,RA90
70,1.875,1.0,-0.3225,0,RA90
71,1.088,0.0,-0.3225,1,RA90
72,1.183,1.0,0.3225,1,RA90
73,1.347,1.0,0.3225,1,RA90
74,1.336,1.0,0.3225,1,RA90
75,1.054,0.0,-0.3225,1,RA90
76,1.032,1.0,0.3225,1,RA90
77,2.067,1.0,-0.3225,0,RA90
78,2.21,0.0,-0.3225,1,RA90
79,1.387,1.0,0.3225,1,RA90
80,1.489,0.0,0.3225,0,RA90
81,1.261,1.0,0.3225,1,RA90
82,1.331,1.0,0.3225,1,RA90
83,1.302,0.0,0.3225,0,RA90
84,2.053,1.0,0.3225,1,RA90
85,1.595,1.0,0.3225,1,RA90
86,2.57,1.0,-0.3225,0,RA90
87,1.135,1.0,0.3225,1,RA90
88,1.345,0.0,0.3225,0,RA90
89,1.053,1.0,0.3225,1,RA90
90,1.749,0.0,0.3225,0,RA90
91,2.045,0.0,-0.3225,1,RA90
92,1.828,1.0,0.3225,1,RA90
93,2.046,1.0,0.3225,1,RA90
94,2.011,0.0,0.3225,0,RA90
95,2.068,0.0,0.3225,0,RA90
96,2.173,0.0,0.3225,0,RA90
97,1.884,1.0,0.3225,1,RA90
98,1.999,1.0,0.3225,1,RA90
99,1.968,1.0,0.3225,1,RA90
100,2.548,1.0,0.3225,1,RA90
1,7.705,1.0,0.3225,1,RA90
2,2.19,0.0,0.3225,0,RA90
3,1.077,1.0,0.3225,1,RA90
4,1.016,0.0,-0.3225,1,RA90
5,1.103,0.0,-0.3225,1,RA90
6,1.144,1.0,0.3225,1,RA90
7,1.386,0.0,0.3225,0,RA90
8,1.695,0.0,-0.3225,1,RA90
9,1.518,1.0,0.3225,1,RA90
10,1.378,1.0,0.3225,1,RA90
11,1.366,0.0,0.3225,0,RA90
12,1.684,0.0,0.3225,0,RA90
13,2.063,1.0,-0.3225,0,RA90
14,1.013,1.0,0.3225,1,RA90
15,1.217,1.0,-0.3225,0,RA90
16,0.994,1.0,0.3225,1,RA90
17,1.219,0.0,0.3225,0,RA90
18,0.976,1.0,0.3225,1,RA90
19,1.037,1.0,0.3225,1,RA90
20,0.994,1.0,0.3225,1,RA90
21,1.802,1.0,0.3225,1,RA90
22,2.212,0.0,0.3225,0,RA90
23,2.142,1.0,0.3225,1,RA90
24,1.817,0.0,0.3225,0,RA90
25,1.618,0.0,0.3225,0,RA90
26,1.304,1.0,0.3225,1,RA90
27,1.655,0.0,0.3225,0,RA90
28,1.116,1.0,0.3225,1,RA90
29,0.981,1.0,0.3225,1,RA90
30,0.966,1.0,0.3225,1,RA90
31,1.1,0.0,0.3225,0,RA90
32,1.141,0.0,-0.3225,1,RA90
33,2.332,0.0,-0.3225,1,RA90
34,2.116,0.0,0.3225,0,RA90
35,1.333,0.0,0.3225,0,RA90
36,1.306,1.0,0.3225,1,RA90
37,1.225,1.0,0.3225,1,RA90
38,0.893,1.0,0.3225,1,RA90
39,1.266,1.0,0.3225,1,RA90
40,1.148,0.0,-0.3225,1,RA90
41,1.481,1.0,0.3225,1,RA90
42,2.924,1.0,0.3225,1,RA90
43,1.191,0.0,0.3225,0,RA90
44,1.168,1.0,0.3225,1,RA90
45,1.395,0.0,0.3225,0,RA90
46,0.999,1.0,-0.3225,0,RA90
47,1.801,1.0,-0.3225,0,RA90
48,1.303,1.0,0.3225,1,RA90
49,1.509,1.0,0.3225,1,RA90
50,1.486,1.0,0.3225,1,RA90
51,2.054,1.0,0.3225,1,RA90
52,1.597,1.0,0.3225,1,RA90
53,1.727,1.0,0.3225,1,RA90
54,2.567,0.0,-0.3225,1,RA90
55,1.374,0.0,-0.3225,1,RA90
56,1.276,0.0,0.3225,0,RA90
57,1.732,1.0,0.3225,1,RA90
58,1.91,0.0,0.3225,0,RA90
59,1.16,1.0,0.3225,1,RA90
60,2.854,0.0,0.3225,0,RA90
61,1.214,0.0,-0.3225,1,RA90
62,1.666,0.0,-0.3225,1,RA90
63,1.103,0.0,-0.3225,1,RA90
64,1.432,0.0,-0.3225,1,RA90
65,1.662,1.0,0.3225,1,RA90
66,1.403,1.0,0.3225,1,RA90
67,1.507,0.0,-0.3225,1,RA90
68,1.303,1.0,0.3225,1,RA90
69,1.129,1.0,0.3225,1,RA90
70,2.085,1.0,0.3225,1,RA90
71,1.996,1.0,0.3225,1,RA90
72,1.413,1.0,0.3225,1,RA90
73,1.37,1.0,0.3225,1,RA90
74,2.185,1.0,0.3225,1,RA90
75,2.43,1.0,0.3225,1,RA90
76,2.648,1.0,0.3225,1,RA90
77,2.092,1.0,0.3225,1,RA90
78,2.08,0.0,0.3225,0,RA90
79,1.293,1.0,0.3225,1,RA90
80,1.664,1.0,0.3225,1,RA90
81,1.276,1.0,0.3225,1,RA90
82,1.64,1.0,0.3225,1,RA90
83,1.966,1.0,0.3225,1,RA90
84,1.806,1.0,0.3225,1,RA90
85,1.909,0.0,0.3225,0,RA90
86,1.498,0.0,0.3225,0,RA90
87,1.584,0.0,0.3225,0,RA90
88,1.817,0.0,0.3225,0,RA90
89,2.738,0.0,0.3225,0,RA90
90,2.115,0.0,-0.3225,1,RA90
91,1.361,0.0,0.3225,0,RA90
92,1.978,0.0,0.3225,0,RA90
93,2.668,1.0,-0.3225,0,RA90
94,1.729,1.0,0.3225,1,RA90
95,1.669,0.0,0.3225,0,RA90
96,1.231,1.0,0.3225,1,RA90
97,1.998,1.0,0.3225,1,RA90
98,2.634,1.0,-0.3225,0,RA90
99,2.198,1.0,0.3225,1,RA90
100,2.166,1.0,0.3225,1,RA90
1,2.36,0.0,0.3225,0,RA90
2,1.405,0.0,-0.3225,1,RA90
3,1.406,0.0,0.3225,0,RA90
4,1.389,1.0,-0.3225,0,RA90
5,1.087,0.0,-0.3225,1,RA90
6,1.467,0.0,0.3225,0,RA90
7,1.308,0.0,0.3225,0,RA90
8,2.178,0.0,0.3225,0,RA90
9,1.335,1.0,0.3225,1,RA90
10,1.557,0.0,-0.3225,1,RA90
11,1.358,0.0,-0.3225,1,RA90
12,2.084,1.0,-0.3225,0,RA90
13,2.119,1.0,-0.3225,0,RA90
14,1.845,1.0,0.3225,1,RA90
15,2.759,0.0,0.3225,0,RA90
16,1.534,1.0,0.3225,1,RA90
17,1.231,0.0,-0.3225,1,RA90
18,1.036,1.0,0.3225,1,RA90
19,1.345,1.0,0.3225,1,RA90
20,1.091,0.0,-0.3225,1,RA90
21,1.428,1.0,0.3225,1,RA90
22,1.99,1.0,-0.3225,0,RA90
23,2.48,1.0,0.3225,1,RA90
24,1.44,1.0,0.3225,1,RA90
25,1.311,1.0,-0.3225,0,RA90
26,2.021,1.0,0.3225,1,RA90
27,1.96,1.0,0.3225,1,RA90
28,1.183,0.0,-0.3225,1,RA90
29,1.646,0.0,-0.3225,1,RA90
30,1.029,0.0,-0.3225,1,RA90
31,2.008,0.0,0.3225,0,RA90
32,2.071,0.0,0.3225,0,RA90
33,1.334,0.0,0.3225,0,RA90
34,2.156,1.0,0.3225,1,RA90
35,1.47,0.0,-0.3225,1,RA90
36,1.487,0.0,-0.3225,1,RA90
37,1.155,0.0,-0.3225,1,RA90
38,1.263,0.0,-0.3225,1,RA90
39,1.62,0.0,0.3225,0,RA90
40,1.703,0.0,0.3225,0,RA90
41,1.369,0.0,-0.3225,1,RA90
42,1.211,1.0,0.3225,1,RA90
43,1.698,0.0,0.3225,0,RA90
44,1.173,1.0,-0.3225,0,RA90
45,1.729,1.0,0.3225,1,RA90
46,1.135,0.0,-0.3225,1,RA90
47,1.321,1.0,0.3225,1,RA90
48,1.832,1.0,-0.3225,0,RA90
49,1.359,1.0,0.3225,1,RA90
50,1.911,0.0,0.3225,0,RA90
51,1.408,1.0,0.3225,1,RA90
52,1.212,1.0,-0.3225,0,RA90
53,1.433,1.0,0.3225,1,RA90
54,1.283,0.0,-0.3225,1,RA90
55,2.346,0.0,-0.3225,1,RA90
56,1.888,0.0,-0.3225,1,RA90
57,2.115,1.0,0.3225,1,RA90
58,2.662,0.0,-0.3225,1,RA90
59,1.982,1.0,0.3225,1,RA90
60,1.725,1.0,0.3225,1,RA90
61,1.777,1.0,-0.3225,0,RA90
62,2.019,1.0,0.3225,1,RA90
63,2.21,0.0,0.3225,0,RA90
64,2.184,0.0,-0.3225,1,RA90
65,1.426,1.0,-0.3225,0,RA90
66,1.114,0.0,-0.3225,1,RA90
67,1.958,1.0,-0.3225,0,RA90
68,1.252,0.0,-0.3225,1,RA90
69,1.669,1.0,0.3225,1,RA90
70,2.252,1.0,-0.3225,0,RA90
71,0.89,0.0,0.3225,0,RA90
72,1.742,1.0,-0.3225,0,RA90
73,2.142,0.0,-0.3225,1,RA90
74,1.813,0.0,-0.3225,1,RA90
75,1.611,1.0,-0.3225,0,RA90
76,1.967,1.0,0.3225,1,RA90
77,2.07,0.0,-0.3225,1,RA90
78,1.8,1.0,-0.3225,0,RA90
79,2.049,0.0,-0.3225,1,RA90
80,3.062,0.0,0.3225,0,RA90
81,1.232,1.0,0.3225,1,RA90
82,1.351,1.0,0.3225,1,RA90
83,1.3,0.0,-0.3225,1,RA90
84,1.283,1.0,0.3225,1,RA90
85,1.871,1.0,-0.3225,0,RA90
86,2.288,0.0,0.3225,0,RA90
87,2.603,0.0,0.3225,0,RA90
88,1.81,0.0,-0.3225,1,RA90
89,2.098,1.0,0.3225,1,RA90
90,1.592,0.0,0.3225,0,RA90
91,1.058,0.0,-0.3225,1,RA90
92,1.704,0.0,-0.3225,1,RA90
93,1.139,0.0,-0.3225,1,RA90
94,1.466,1.0,0.3225,1,RA90
95,1.447,0.0,-0.3225,1,RA90
96,2.128,1.0,0.3225,1,RA90
97,1.436,1.0,-0.3225,0,RA90
98,1.999,0.0,0.3225,0,RA90
99,1.881,0.0,-0.3225,1,RA90
100,1.282,1.0,0.3225,1,RA90
1,1.588,1.0,-0.3225,0,RA90
2,1.924,0.0,-0.3225,1,RA90
3,1.181,1.0,0.3225,1,RA90
4,2.006,1.0,0.3225,1,RA90
5,2.239,0.0,-0.3225,1,RA90
6,1.419,0.0,0.3225,0,RA90
7,1.271,0.0,-0.3225,1,RA90
8,1.456,0.0,0.3225,0,RA90
9,1.446,1.0,-0.3225,0,RA90
10,1.983,1.0,-0.3225,0,RA90
11,1.578,1.0,0.3225,1,RA90
12,1.424,1.0,-0.3225,0,RA90
13,1.648,1.0,0.3225,1,RA90
14,2.138,1.0,0.3225,1,RA90
15,1.635,0.0,-0.3225,1,RA90
16,1.997,1.0,-0.3225,0,RA90
17,1.443,0.0,-0.3225,1,RA90
18,1.857,1.0,-0.3225,0,RA90
19,1.543,1.0,0.3225,1,RA90
20,1.384,1.0,0.3225,1,RA90
21,2.01,0.0,-0.3225,1,RA90
22,1.131,1.0,0.3225,1,RA90
23,1.69,0.0,0.3225,0,RA90
24,1.678,0.0,-0.3225,1,RA90
25,1.056,1.0,0.3225,1,RA90
26,1.171,1.0,0.3225,1,RA90
27,1.251,1.0,0.3225,1,RA90
28,1.515,1.0,-0.3225,0,RA90
29,2.115,1.0,0.3225,1,RA90
30,1.403,1.0,0.3225,1,RA90
31,1.241,1.0,-0.3225,0,RA90
32,1.822,0.0,-0.3225,1,RA90
33,1.416,0.0,0.3225,0,RA90
34,1.061,1.0,0.3225,1,RA90
35,1.618,1.0,0.3225,1,RA90
36,1.168,1.0,0.3225,1,RA90
37,1.541,0.0,-0.3225,1,RA90
38,1.435,0.0,-0.3225,1,RA90
39,1.607,1.0,-0.3225,0,RA90
40,1.463,0.0,-0.3225,1,RA90
41,1.579,0.0,0.3225,0,RA90
42,1.431,0.0,0.3225,0,RA90
43,1.881,1.0,-0.3225,0,RA90
44,1.534,1.0,-0.3225,0,RA90
45,1.624,1.0,0.3225,1,RA90
46,1.724,0.0,-0.3225,1,RA90
47,1.259,1.0,0.3225,1,RA90
48,1.156,1.0,0.3225,1,RA90
49,1.584,1.0,0.3225,1,RA90
50,1.675,1.0,-0.3225,0,RA90
51,1.855,0.0,-0.3225,1,RA90
52,1.405,1.0,0.3225,1,RA90
53,1.217,1.0,0.3225,1,RA90
54,1.621,0.0,-0.3225,1,RA90
55,1.457,0.0,-0.3225,1,RA90
56,1.179,0.0,-0.3225,1,RA90
57,1.11,0.0,0.3225,0,RA90
58,1.463,1.0,0.3225,1,RA90
59,1.65,0.0,-0.3225,1,RA90
60,1.261,0.0,-0.3225,1,RA90
61,1.999,0.0,0.3225,0,RA90
62,1.279,0.0,-0.3225,1,RA90
63,1.399,0.0,0.3225,0,RA90
64,1.23,0.0,0.3225,0,RA90
65,1.662,0.0,-0.3225,1,RA90
66,1.173,0.0,-0.3225,1,RA90
67,1.741,0.0,-0.3225,1,RA90
68,2.0,1.0,0.3225,1,RA90
69,2.267,1.0,0.3225,1,RA90
70,2.355,1.0,0.3225,1,RA90
71,1.233,0.0,-0.3225,1,RA90
72,1.906,0.0,-0.3225,1,RA90
73,1.85,1.0,-0.3225,0,RA90
74,1.702,0.0,0.3225,0,RA90
75,1.707,1.0,-0.3225,0,RA90
76,1.513,1.0,0.3225,1,RA90
77,1.663,1.0,-0.3225,0,RA90
78,1.813,1.0,-0.3225,0,RA90
79,1.64,0.0,0.3225,0,RA90
80,1.501,1.0,0.3225,1,RA90
81,1.204,1.0,-0.3225,0,RA90
82,1.375,1.0,0.3225,1,RA90
83,1.727,1.0,0.3225,1,RA90
84,1.962,0.0,0.3225,0,RA90
85,1.29,1.0,0.3225,1,RA90
86,2.303,1.0,-0.3225,0,RA90
87,1.372,0.0,-0.3225,1,RA90
88,1.71,1.0,0.3225,1,RA90
89,1.368,0.0,0.3225,0,RA90
90,1.208,0.0,-0.3225,1,RA90
91,1.643,1.0,0.3225,1,RA90
92,1.418,0.0,-0.3225,1,RA90
93,1.423,1.0,0.3225,1,RA90
94,1.629,0.0,-0.3225,1,RA90
95,2.315,0.0,-0.3225,1,RA90
96,1.722,0.0,-0.3225,1,RA90
97,1.32,0.0,0.3225,0,RA90
98,2.023,0.0,-0.3225,1,RA90
99,1.459,0.0,-0.3225,1,RA90
100,1.365,1.0,0.3225,1,RA90
1,2.505,0.0,0.6503,0,GS76
2,3.01,1.0,0.6503,1,GS76
3,3.955,0.0,0.6503,0,GS76
4,3.379,0.0,0.6503,0,GS76
5,3.741,0.0,0.6503,0,GS76
6,3.741,0.0,0.6503,0,GS76
7,1.052,0.0,-0.6503,1,GS76
8,1.516,1.0,-0.6503,0,GS76
9,1.25,1.0,0.6503,1,GS76
10,2.369,0.0,0.6503,0,GS76
11,1.541,0.0,0.6503,0,GS76
12,1.427,1.0,0.6503,1,GS76
13,1.423,0.0,0.6503,0,GS76
14,1.578,1.0,0.6503,1,GS76
15,1.394,0.0,0.6503,0,GS76
16,1.514,1.0,0.6503,1,GS76
17,2.266,0.0,0.6503,0,GS76
18,1.456,1.0,0.6503,1,GS76
19,1.411,0.0,0.6503,0,GS76
20,2.148,1.0,0.6503,1,GS76
21,2.295,0.0,0.6503,0,GS76
22,1.509,1.0,0.6503,1,GS76
23,1.321,1.0,0.6503,1,GS76
24,1.651,0.0,0.6503,0,GS76
25,1.363,1.0,0.6503,1,GS76
26,1.299,0.0,0.6503,0,GS76
27,1.741,1.0,-0.6503,0,GS76
28,2.266,0.0,0.6503,0,GS76
29,2.837,0.0,-0.6503,1,GS76
30,2.115,1.0,0.6503,1,GS76
31,2.812,0.0,-0.6503,1,GS76
32,2.409,1.0,0.6503,1,GS76
33,1.681,0.0,0.6503,0,GS76
34,1.686,0.0,0.6503,0,GS76
35,1.974,0.0,0.6503,0,GS76
36,2.64,1.0,0.6503,1,GS76
37,1.314,1.0,0.6503,1,GS76
38,0.978,0.0,-0.6503,1,GS76
39,1.206,1.0,0.6503,1,GS76
40,1.196,0.0,-0.6503,1,GS76
41,1.957,1.0,0.6503,1,GS76
42,1.501,0.0,-0.6503,1,GS76
43,1.079,1.0,0.6503,1,GS76
44,2.019,0.0,0.6503,0,GS76
45,1.327,1.0,0.6503,1,GS76
46,1.404,0.0,0.6503,0,GS76
47,1.953,1.0,0.6503,1,GS76
48,2.364,1.0,0.6503,1,GS76
49,0.731,0.0,0.6503,0,GS76
50,2.432,0.0,0.6503,0,GS76
51,1.792,0.0,-0.6503,1,GS76
52,1.079,0.0,-0.6503,1,GS76
53,1.714,0.0,-0.6503,1,GS76
54,1.164,0.0,0.6503,0,GS76
55,1.597,0.0,0.6503,0,GS76
56,2.293,0.0,0.6503,0,GS76
57,1.851,0.0,0.6503,0,GS76
58,2.488,0.0,-0.6503,1,GS76
59,2.441,0.0,0.6503,0,GS76
60,2.573,1.0,0.6503,1,GS76
61,1.534,0.0,0.6503,0,GS76
62,1.393,0.0,-0.6503,1,GS76
63,1.904,1.0,0.6503,1,GS76
64,1.132,0.0,0.6503,0,GS76
65,1.564,0.0,0.6503,0,GS76
66,1.906,0.0,0.6503,0,GS76
67,1.866,0.0,-0.6503,1,GS76
68,2.267,0.0,0.6503,0,GS76
69,2.81,0.0,0.6503,0,GS76
70,2.159,1.0,0.6503,1,GS76
71,1.171,1.0,0.6503,1,GS76
72,1.592,0.0,-0.6503,1,GS76
73,2.769,0.0,0.6503,0,GS76
74,1.79,1.0,0.6503,1,GS76
75,1.919,0.0,0.6503,0,GS76
76,1.505,1.0,0.6503,1,GS76
77,1.374,0.0,-0.6503,1,GS76
78,2.298,0.0,0.6503,0,GS76
79,1.773,1.0,0.6503,1,GS76
80,1.28,0.0,0.6503,0,GS76
81,2.363,0.0,0.6503,0,GS76
82,1.948,0.0,-0.6503,1,GS76
83,2.551,1.0,0.6503,1,GS76
84,1.576,1.0,0.6503,1,GS76
85,1.707,0.0,0.6503,0,GS76
86,1.259,1.0,0.6503,1,GS76
87,1.107,0.0,0.6503,0,GS76
88,2.535,0.0,0.6503,0,GS76
89,2.317,0.0,-0.6503,1,GS76
90,1.195,1.0,0.6503,1,GS76
91,1.063,1.0,0.6503,1,GS76
92,1.149,0.0,0.6503,0,GS76
93,2.16,0.0,0.6503,0,GS76
94,1.684,0.0,0.6503,0,GS76
95,1.466,1.0,0.6503,1,GS76
96,1.392,0.0,0.6503,0,GS76
97,1.323,1.0,0.6503,1,GS76
98,1.018,1.0,0.6503,1,GS76
99,1.061,0.0,-0.6503,1,GS76
100,1.309,0.0,-0.6503,1,GS76
1,1.31,0.0,-0.6503,1,GS76
2,1.451,0.0,0.6503,0,GS76
3,1.654,0.0,0.6503,0,GS76
4,1.211,0.0,0.6503,0,GS76
5,1.176,0.0,0.6503,0,GS76
6,1.627,0.0,0.6503,0,GS76
7,1.863,0.0,-0.6503,1,GS76
8,2.306,0.0,0.6503,0,GS76
9,2.358,1.0,0.6503,1,GS76
10,1.302,0.0,0.6503,0,GS76
11,1.195,1.0,0.6503,1,GS76
12,0.957,1.0,0.6503,1,GS76
13,1.211,0.0,0.6503,0,GS76
14,1.204,1.0,0.6503,1,GS76
15,1.205,0.0,-0.6503,1,GS76
16,1.173,1.0,0.6503,1,GS76
17,1.083,0.0,0.6503,0,GS76
18,1.41,1.0,0.6503,1,GS76
19,1.493,0.0,0.6503,0,GS76
20,1.166,1.0,-0.6503,0,GS76
21,1.177,1.0,0.6503,1,GS76
22,1.605,0.0,-0.6503,1,GS76
23,3.103,0.0,0.6503,0,GS76
24,1.414,1.0,0.6503,1,GS76
25,2.263,0.0,0.6503,0,GS76
26,1.517,1.0,-0.6503,0,GS76
27,1.307,0.0,0.6503,0,GS76
28,1.507,1.0,0.6503,1,GS76
29,1.466,0.0,0.6503,0,GS76
30,1.968,0.0,0.6503,0,GS76
31,1.244,1.0,0.6503,1,GS76
32,1.093,0.0,-0.6503,1,GS76
33,1.413,1.0,0.6503,1,GS76
34,1.127,0.0,0.6503,0,GS76
35,1.173,1.0,0.6503,1,GS76
36,1.888,0.0,0.6503,0,GS76
37,1.031,1.0,0.6503,1,GS76
38,1.161,0.0,-0.6503,1,GS76
39,1.203,1.0,-0.6503,0,GS76
40,1.128,0.0,0.6503,0,GS76
41,1.195,1.0,0.6503,1,GS76
42,1.755,0.0,0.6503,0,GS76
43,1.116,0.0,-0.6503,1,GS76
44,1.048,1.0,0.6503,1,GS76
45,1.435,0.0,-0.6503,1,GS76
46,1.691,0.0,0.6503,0,GS76
47,2.192,1.0,0.6503,1,GS76
48,1.553,0.0,0.6503,0,GS76
49,1.379,1.0,0.6503,1,GS76
50,1.455,0.0,-0.6503,1,GS76
51,1.503,1.0,0.6503,1,GS76
52,1.322,0.0,-0.6503,1,GS76
53,1.496,0.0,0.6503,0,GS76
54,1.3,0.0,0.6503,0,GS76
55,2.06,0.0,0.6503,0,GS76
56,2.313,0.0,0.6503,0,GS76
57,1.035,1.0,0.6503,1,GS76
58,1.186,1.0,0.6503,1,GS76
59,2.221,0.0,0.6503,0,GS76
60,1.894,0.0,0.6503,0,GS76
61,1.495,0.0,0.6503,0,GS76
62,1.263,0.0,0.6503,0,GS76
63,1.161,0.0,0.6503,0,GS76
64,1.136,0.0,0.6503,0,GS76
65,1.94,0.0,0.6503,0,GS76
66,1.371,0.0,-0.6503,1,GS76
67,1.081,0.0,0.6503,0,GS76
68,1.697,0.0,0.6503,0,GS76
69,1.847,0.0,0.6503,0,GS76
70,2.433,0.0,0.6503,0,GS76
71,2.785,0.0,0.6503,0,GS76
72,2.453,0.0,0.6503,0,GS76
73,1.342,0.0,-0.6503,1,GS76
74,1.724,0.0,0.6503,0,GS76
75,1.559,0.0,-0.6503,1,GS76
76,2.465,0.0,0.6503,0,GS76
77,1.601,0.0,0.6503,0,GS76
78,1.756,0.0,0.6503,0,GS76
79,2.527,0.0,0.6503,0,GS76
80,2.346,0.0,0.6503,0,GS76
81,2.607,0.0,0.6503,0,GS76
82,1.184,1.0,0.6503,1,GS76
83,1.363,0.0,0.6503,0,GS76
84,1.434,0.0,0.6503,0,GS76
85,1.054,1.0,0.6503,1,GS76
86,1.659,0.0,0.6503,0,GS76
87,1.521,1.0,0.6503,1,GS76
88,1.703,0.0,0.6503,0,GS76
89,2.018,0.0,0.6503,0,GS76
90,2.36,0.0,0.6503,0,GS76
91,2.143,0.0,-0.6503,1,GS76
92,1.87,0.0,0.6503,0,GS76
93,1.18,0.0,-0.6503,1,GS76
94,1.794,0.0,0.6503,0,GS76
95,2.19,0.0,0.6503,0,GS76
96,2.692,0.0,0.6503,0,GS76
97,2.468,0.0,0.6503,0,GS76
98,2.612,0.0,-0.6503,1,GS76
99,1.664,0.0,-0.6503,1,GS76
100,2.373,0.0,0.6503,0,GS76
1,2.946,0.0,0.6503,0,GS76
2,1.215,1.0,0.6503,1,GS76
3,1.249,0.0,0.6503,0,GS76
4,1.137,1.0,0.6503,1,GS76
5,1.026,0.0,-0.6503,1,GS76
6,1.131,1.0,0.6503,1,GS76
7,2.293,0.0,-0.6503,1,GS76
8,1.012,1.0,0.6503,1,GS76
9,1.646,0.0,0.6503,0,GS76
10,1.532,1.0,0.6503,1,GS76
11,1.284,0.0,-0.6503,1,GS76
12,1.082,1.0,0.6503,1,GS76
13,1.788,0.0,0.6503,0,GS76
14,1.012,1.0,-0.6503,0,GS76
15,1.245,0.0,0.6503,0,GS76
16,1.423,0.0,0.6503,0,GS76
17,2.02,0.0,-0.6503,1,GS76
18,1.102,1.0,0.6503,1,GS76
19,1.226,0.0,0.6503,0,GS76
20,1.163,1.0,0.6503,1,GS76
21,1.136,0.0,-0.6503,1,GS76
22,1.496,1.0,0.6503,1,GS76
23,1.329,0.0,-0.6503,1,GS76
24,1.556,0.0,-0.6503,1,GS76
25,1.626,0.0,0.6503,0,GS76
26,1.429,0.0,0.6503,0,GS76
27,1.384,0.0,-0.6503,1,GS76
28,2.344,0.0,0.6503,0,GS76
29,2.271,0.0,0.6503,0,GS76
30,2.51,1.0,-0.6503,0,GS76
31,1.823,0.0,0.6503,0,GS76
32,1.2,1.0,0.6503,1,GS76
33,1.205,0.0,0.6503,0,GS76
34,1.858,1.0,0.6503,1,GS76
35,1.375,0.0,0.6503,0,GS76
36,1.42,1.0,-0.6503,0,GS76
37,1.61,0.0,-0.6503,1,GS76
38,1.342,1.0,0.6503,1,GS76
39,1.616,1.0,0.6503,1,GS76
40,1.63,1.0,0.6503,1,GS76
41,1.81,0.0,0.6503,0,GS76
42,1.315,1.0,0.6503,1,GS76
43,1.269,1.0,0.6503,1,GS76
44,1.514,1.0,0.6503,1,GS76
45,1.735,0.0,0.6503,0,GS76
46,1.625,0.0,0.6503,0,GS76
47,1.904,0.0,0.6503,0,GS76
48,1.546,0.0,0.6503,0,GS76
49,1.553,0.0,0.6503,0,GS76
50,2.518,0.0,0.6503,0,GS76
51,2.633,0.0,0.6503,0,GS76
52,1.481,1.0,0.6503,1,GS76
53,1.28,0.0,0.6503,0,GS76
54,1.347,0.0,-0.6503,1,GS76
55,1.275,0.0,-0.6503,1,GS76
56,1.369,0.0,0.6503,0,GS76
57,1.681,1.0,0.6503,1,GS76
58,1.631,0.0,-0.6503,1,GS76
59,1.59,0.0,0.6503,0,GS76
60,2.162,0.0,0.6503,0,GS76
61,2.52,0.0,-0.6503,1,GS76
62,1.309,1.0,0.6503,1,GS76
63,1.332,0.0,-0.6503,1,GS76
64,1.067,1.0,0.6503,1,GS76
65,1.756,0.0,0.6503,0,GS76
66,1.449,1.0,0.6503,1,GS76
67,1.68,0.0,0.6503,0,GS76
68,1.413,1.0,0.6503,1,GS76
69,1.25,0.0,0.6503,0,GS76
70,2.658,0.0,0.6503,0,GS76
71,2.171,0.0,0.6503,0,GS76
72,2.051,1.0,0.6503,1,GS76
73,1.808,0.0,0.6503,0,GS76
74,1.413,0.0,0.6503,0,GS76
75,3.013,0.0,0.6503,0,GS76
76,1.44,1.0,0.6503,1,GS76
77,1.541,0.0,0.6503,0,GS76
78,2.2,1.0,0.6503,1,GS76
79,2.315,0.0,0.6503,0,GS76
80,2.32,1.0,-0.6503,0,GS76
81,1.658,1.0,0.6503,1,GS76
82,2.101,0.0,0.6503,0,GS76
83,2.893,0.0,0.6503,0,GS76
84,2.196,0.0,0.6503,0,GS76
85,2.417,0.0,0.6503,0,GS76
86,1.473,1.0,0.6503,1,GS76
87,1.191,0.0,0.6503,0,GS76
88,1.192,1.0,-0.6503,0,GS76
89,2.838,1.0,0.6503,1,GS76
90,1.161,1.0,0.6503,1,GS76
91,1.487,0.0,0.6503,0,GS76
92,2.452,1.0,0.6503,1,GS76
93,2.633,0.0,0.6503,0,GS76
94,1.537,1.0,0.6503,1,GS76
95,2.271,0.0,0.6503,0,GS76
96,1.691,0.0,0.6503,0,GS76
97,2.035,0.0,0.6503,0,GS76
98,2.437,1.0,-0.6503,0,GS76
99,1.2,0.0,0.6503,0,GS76
100,1.625,1.0,0.6503,1,GS76
1,5.608,1.0,-0.6503,0,GS76
2,1.24,0.0,-0.6503,1,GS76
3,2.719,0.0,0.6503,0,GS76
4,1.281,0.0,-0.6503,1,GS76
5,1.155,0.0,-0.6503,1,GS76
6,1.31,0.0,0.6503,0,GS76
7,2.068,0.0,0.6503,0,GS76
8,2.209,0.0,0.6503,0,GS76
9,1.628,1.0,0.6503,1,GS76
10,0.999,1.0,0.6503,1,GS76
11,12.604,0.0,0.6503,1,GS76
12,1.552,0.0,-0.6503,1,GS76
13,10.742,0.0,-0.6503,1,GS76
14,2.246,0.0,0.6503,0,GS76
15,2.005,0.0,-0.6503,1,GS76
16,1.33,0.0,-0.6503,1,GS76
17,1.134,0.0,-0.6503,1,GS76
18,1.058,1.0,0.6503,1,GS76
19,1.514,1.0,0.6503,1,GS76
20,1.501,0.0,0.6503,0,GS76
21,1.097,0.0,-0.6503,1,GS76
22,1.136,0.0,-0.6503,1,GS76
23,1.299,0.0,-0.6503,1,GS76
24,1.001,0.0,-0.6503,1,GS76
25,2.252,0.0,0.6503,0,GS76
26,2.288,0.0,-0.6503,1,GS76
27,2.362,0.0,0.6503,0,GS76
28,1.555,0.0,-0.6503,1,GS76
29,2.391,0.0,0.6503,0,GS76
30,2.487,0.0,0.6503,0,GS76
31,1.614,1.0,0.6503,1,GS76
32,1.272,0.0,0.6503,0,GS76
33,1.591,0.0,-0.6503,1,GS76
34,1.74,0.0,-0.6503,1,GS76
35,2.401,1.0,-0.6503,0,GS76
36,1.338,0.0,-0.6503,1,GS76
37,1.519,1.0,0.6503,1,GS76
38,1.65,1.0,-0.6503,0,GS76
39,1.334,0.0,0.6503,0,GS76
40,1.639,1.0,0.6503,1,GS76
41,1.476,1.0,0.6503,1,GS76
42,1.565,1.0,0.6503,1,GS76
43,1.375,1.0,-0.6503,0,GS76
44,1.655,1.0,-0.6503,0,GS76
45,1.17,1.0,0.6503,1,GS76
46,1.681,1.0,0.6503,1,GS76
47,1.138,1.0,0.6503,1,GS76
48,1.693,1.0,0.6503,1,GS76
49,1.248,0.0,-0.6503,1,GS76
50,1.3,0.0,-0.6503,1,GS76
51,1.814,1.0,0.6503,1,GS76
52,1.154,0.0,-0.6503,1,GS76
53,2.056,0.0,-0.6503,1,GS76
54,1.363,0.0,-0.6503,1,GS76
55,1.946,0.0,0.6503,0,GS76
56,2.279,0.0,0.6503,0,GS76
57,2.319,0.0,0.6503,0,GS76
58,2.319,0.0,0.6503,0,GS76
59,2.741,0.0,0.6503,0,GS76
60,2.476,1.0,0.6503,1,GS76
61,1.666,0.0,0.6503,0,GS76
62,2.258,1.0,0.6503,1,GS76
63,1.348,0.0,-0.6503,1,GS76
64,2.563,0.0,-0.6503,1,GS76
65,1.767,0.0,-0.6503,1,GS76
66,2.828,0.0,-0.6503,1,GS76
67,2.145,0.0,-0.6503,1,GS76
68,1.354,0.0,-0.6503,1,GS76
69,2.45,1.0,-0.6503,0,GS76
70,2.215,1.0,0.6503,1,GS76
71,2.985,0.0,0.6503,0,GS76
72,1.101,0.0,-0.6503,1,GS76
73,2.341,0.0,0.6503,0,GS76
74,1.232,1.0,0.6503,1,GS76
75,1.401,0.0,-0.6503,1,GS76
76,0.959,0.0,0.6503,0,GS76
77,1.366,1.0,0.6503,1,GS76
78,1.222,1.0,-0.6503,0,GS76
79,1.602,1.0,0.6503,1,GS76
80,1.826,0.0,0.6503,0,GS76
81,1.661,0.0,-0.6503,1,GS76
82,2.297,1.0,-0.6503,0,GS76
83,1.927,0.0,-0.6503,1,GS76
84,1.681,0.0,-0.6503,1,GS76
85,1.848,0.0,0.6503,0,GS76
86,2.112,0.0,-0.6503,1,GS76
87,1.205,1.0,0.6503,1,GS76
88,22.221,1.0,-0.6503,0,GS76
89,1.457,1.0,-0.6503,0,GS76
90,1.135,1.0,0.6503,1,GS76
91,0.942,1.0,0.6503,1,GS76
92,13.302,1.0,0.6503,1,GS76
93,1.36,0.0,-0.6503,1,GS76
94,1.052,0.0,0.6503,0,GS76
95,1.623,0.0,-0.6503,1,GS76
96,1.83,0.0,-0.6503,1,GS76
97,2.148,1.0,-0.6503,0,GS76
98,1.195,1.0,0.6503,1,GS76
99,1.343,1.0,-0.6503,0,GS76
100,1.318,1.0,-0.6503,0,GS76
1,1.617,1.0,0.6503,1,GS76
2,1.046,0.0,-0.6503,1,GS76
3,1.011,0.0,-0.6503,1,GS76
4,1.335,0.0,0.6503,0,GS76
5,1.533,1.0,0.6503,1,GS76
6,1.581,0.0,0.6503,0,GS76
7,1.651,0.0,0.6503,0,GS76
8,1.569,0.0,-0.6503,1,GS76
9,1.145,0.0,-0.6503,1,GS76
10,1.889,0.0,-0.6503,1,GS76
11,1.445,1.0,0.6503,1,GS76
12,1.895,0.0,-0.6503,1,GS76
13,1.246,0.0,-0.6503,1,GS76
14,1.331,1.0,-0.6503,0,GS76
15,1.489,0.0,-0.6503,1,GS76
16,1.064,1.0,0.6503,1,GS76
17,1.125,1.0,0.6503,1,GS76
18,2.105,0.0,-0.6503,1,GS76
19,1.648,1.0,0.6503,1,GS76
20,1.102,1.0,0.6503,1,GS76
21,1.061,0.0,-0.6503,1,GS76
22,2.174,0.0,-0.6503,1,GS76
23,2.329,0.0,0.6503,0,GS76
24,1.152,1.0,0.6503,1,GS76
25,1.233,0.0,-0.6503,1,GS76
26,1.334,0.0,-0.6503,1,GS76
27,1.449,1.0,-0.6503,0,GS76
28,1.236,0.0,0.6503,0,GS76
29,1.424,1.0,0.6503,1,GS76
30,1.237,0.0,-0.6503,1,GS76
31,1.825,0.0,-0.6503,1,GS76
32,2.007,0.0,-0.6503,1,GS76
33,1.628,1.0,0.6503,1,GS76
34,1.185,0.0,0.6503,0,GS76
35,2.356,0.0,0.6503,0,GS76
36,1.572,1.0,-0.6503,0,GS76
37,1.895,0.0,-0.6503,1,GS76
38,1.339,1.0,-0.6503,0,GS76
39,1.643,0.0,-0.6503,1,GS76
40,2.948,0.0,0.6503,0,GS76
41,1.997,1.0,0.6503,1,GS76
42,1.708,0.0,-0.6503,1,GS76
43,1.64,0.0,-0.6503,1,GS76
44,1.514,1.0,0.6503,1,GS76
45,1.589,0.0,0.6503,0,GS76
46,1.854,0.0,0.6503,0,GS76
47,2.179,0.0,0.6503,0,GS76
48,2.388,0.0,-0.6503,1,GS76
49,1.832,1.0,0.6503,1,GS76
50,1.95,1.0,-0.6503,0,GS76
51,1.244,0.0,-0.6503,1,GS76
52,1.632,0.0,-0.6503,1,GS76
53,2.498,0.0,0.6503,0,GS76
54,2.532,0.0,-0.6503,1,GS76
55,2.003,1.0,0.6503,1,GS76
56,1.757,0.0,-0.6503,1,GS76
57,1.537,1.0,0.6503,1,GS76
58,1.248,0.0,-0.6503,1,GS76
59,1.393,1.0,-0.6503,0,GS76
60,1.189,0.0,0.6503,0,GS76
61,1.024,0.0,0.6503,0,GS76
62,1.346,1.0,-0.6503,0,GS76
63,1.334,0.0,0.6503,0,GS76
64,2.112,1.0,0.6503,1,GS76
65,1.298,1.0,0.6503,1,GS76
66,1.839,1.0,-0.6503,0,GS76
67,2.178,1.0,-0.6503,0,GS76
68,1.832,0.0,-0.6503,1,GS76
69,1.674,1.0,-0.6503,0,GS76
70,1.494,0.0,-0.6503,1,GS76
71,1.844,0.0,0.6503,0,GS76
72,2.244,0.0,0.6503,0,GS76
73,1.229,1.0,0.6503,1,GS76
74,1.354,1.0,-0.6503,0,GS76
75,1.253,1.0,0.6503,1,GS76
76,1.387,1.0,0.6503,1,GS76
77,1.784,1.0,0.6503,1,GS76
78,1.998,0.0,0.6503,0,GS76
79,1.184,0.0,0.6503,0,GS76
80,1.459,1.0,-0.6503,0,GS76
81,1.351,1.0,-0.6503,0,GS76
82,1.792,1.0,0.6503,1,GS76
83,1.832,0.0,0.6503,0,GS76
84,1.594,1.0,-0.6503,0,GS76
85,1.294,1.0,-0.6503,0,GS76
86,1.506,0.0,-0.6503,1,GS76
87,1.343,1.0,0.6503,1,GS76
88,1.455,0.0,-0.6503,1,GS76
89,1.633,1.0,-0.6503,0,GS76
90,1.534,0.0,-0.6503,1,GS76
91,1.036,1.0,-0.6503,0,GS76
92,2.034,1.0,0.6503,1,GS76
93,2.002,1.0,-0.6503,0,GS76
94,1.49,1.0,0.6503,1,GS76
95,2.401,1.0,0.6503,1,GS76
96,1.304,0.0,0.6503,0,GS76
97,1.305,0.0,0.6503,0,GS76
98,1.679,0.0,-0.6503,1,GS76
99,1.444,1.0,0.6503,1,GS76
100,1.488,1.0,0.6503,1,GS76
1,2.048,1.0,-0.3815,0,MP90
2,1.102,1.0,0.3815,1,MP90
3,1.747,1.0,0.3815,1,MP90
4,1.272,1.0,0.3815,1,MP90
5,1.354,1.0,0.3815,1,MP90
6,1.255,1.0,0.3815,1,MP90
7,1.145,1.0,0.3815,1,MP90
8,1.352,0.0,0.3815,0,MP90
9,0.897,1.0,-0.3815,0,MP90
10,1.612,1.0,0.3815,1,MP90
11,1.059,1.0,0.3815,1,MP90
12,1.038,1.0,0.3815,1,MP90
13,1.091,1.0,0.3815,1,MP90
14,1.114,1.0,-0.3815,0,MP90
15,1.138,1.0,0.3815,1,MP90
16,1.042,1.0,0.3815,1,MP90
17,1.036,1.0,0.3815,1,MP90
18,1.01,1.0,-0.3815,0,MP90
19,1.209,0.0,-0.3815,1,MP90
20,3.194,0.0,0.3815,0,MP90
21,2.217,0.0,-0.3815,1,MP90
22,1.423,1.0,0.3815,1,MP90
23,1.182,1.0,0.3815,1,MP90
24,1.864,1.0,0.3815,1,MP90
25,2.782,0.0,0.3815,0,MP90
26,1.141,1.0,0.3815,1,MP90
27,2.501,1.0,0.3815,1,MP90
28,1.462,1.0,0.3815,1,MP90
29,1.919,1.0,0.3815,1,MP90
30,2.16,1.0,0.3815,1,MP90
31,1.06,1.0,0.3815,1,MP90
32,1.218,1.0,0.3815,1,MP90
33,1.137,1.0,0.3815,1,MP90
34,1.349,1.0,0.3815,1,MP90
35,1.589,1.0,0.3815,1,MP90
36,1.1,1.0,0.3815,1,MP90
37,1.253,1.0,-0.3815,0,MP90
38,1.273,0.0,-0.3815,1,MP90
39,1.076,0.0,0.3815,0,MP90
40,1.05,1.0,0.3815,1,MP90
41,1.097,1.0,0.3815,1,MP90
42,0.999,1.0,0.3815,1,MP90
43,1.467,1.0,0.3815,1,MP90
44,0.84,1.0,0.3815,1,MP90
45,1.086,1.0,0.3815,1,MP90
46,1.084,1.0,0.3815,1,MP90
47,1.349,1.0,0.3815,1,MP90
48,1.095,1.0,0.3815,1,MP90
49,1.223,1.0,0.3815,1,MP90
50,2.853,0.0,0.3815,0,MP90
51,3.322,0.0,-0.3815,1,MP90
52,2.427,1.0,0.3815,1,MP90
53,2.507,0.0,-0.3815,1,MP90
54,2.235,0.0,-0.3815,1,MP90
55,1.531,1.0,0.3815,1,MP90
56,1.605,1.0,0.3815,1,MP90
57,4.345,0.0,0.3815,0,MP90
58,2.69,0.0,0.3815,0,MP90
59,1.567,1.0,0.3815,1,MP90
60,1.512,1.0,0.3815,1,MP90
61,1.169,1.0,0.3815,1,MP90
62,1.763,1.0,-0.3815,0,MP90
63,1.08,1.0,0.3815,1,MP90
64,1.863,1.0,0.3815,1,MP90
65,2.539,1.0,-0.3815,0,MP90
66,1.379,1.0,0.3815,1,MP90
67,1.523,0.0,-0.3815,1,MP90
68,1.045,1.0,0.3815,1,MP90
69,2.985,1.0,-0.3815,0,MP90
70,3.372,1.0,0.3815,1,MP90
71,1.926,1.0,-0.3815,0,MP90
72,1.224,1.0,0.3815,1,MP90
73,1.331,1.0,-0.3815,0,MP90
74,1.256,1.0,0.3815,1,MP90
75,2.61,0.0,0.3815,0,MP90
76,1.389,1.0,0.3815,1,MP90
77,2.623,0.0,0.3815,0,MP90
78,2.474,1.0,0.3815,1,MP90
79,1.672,1.0,-0.3815,0,MP90
80,2.61,0.0,0.3815,0,MP90
81,2.683,1.0,-0.3815,0,MP90
82,2.066,0.0,0.3815,0,MP90
83,1.683,1.0,0.3815,1,MP90
84,1.31,0.0,0.3815,0,MP90
85,2.999,1.0,0.3815,1,MP90
86,1.585,1.0,0.3815,1,MP90
87,1.191,1.0,0.3815,1,MP90
88,1.307,1.0,0.3815,1,MP90
89,1.365,1.0,0.3815,1,MP90
90,1.446,1.0,0.3815,1,MP90
91,1.57,1.0,0.3815,1,MP90
92,1.733,1.0,0.3815,1,MP90
93,1.064,1.0,0.3815,1,MP90
94,9.362,0.0,0.3815,0,MP90
95,3.621,1.0,0.3815,1,MP90
96,1.64,1.0,0.3815,1,MP90
97,0.986,1.0,0.3815,1,MP90
98,1.793,1.0,-0.3815,0,MP90
99,1.321,1.0,0.3815,1,MP90
100,1.079,1.0,0.3815,1,MP90
1,2.172,1.0,0.3815,1,MP90
2,1.043,1.0,-0.3815,0,MP90
3,2.121,1.0,-0.3815,0,MP90
4,1.524,1.0,-0.3815,0,MP90
5,1.477,1.0,0.3815,1,MP90
6,2.102,1.0,0.3815,1,MP90
7,1.211,1.0,0.3815,1,MP90
8,1.674,1.0,-0.3815,0,MP90
9,1.055,1.0,0.3815,1,MP90
10,1.482,1.0,0.3815,1,MP90
11,2.187,1.0,-0.3815,0,MP90
12,1.726,1.0,-0.3815,0,MP90
13,1.727,1.0,0.3815,1,MP90
14,1.517,1.0,0.3815,1,MP90
15,2.024,0.0,0.3815,0,MP90
16,1.922,0.0,0.3815,0,MP90
17,1.152,1.0,0.3815,1,MP90
18,1.536,1.0,0.3815,1,MP90
19,1.23,1.0,0.3815,1,MP90
20,1.482,1.0,0.3815,1,MP90
21,1.64,1.0,0.3815,1,MP90
22,1.347,1.0,0.3815,1,MP90
23,1.619,1.0,0.3815,1,MP90
24,1.62,1.0,-0.3815,0,MP90
25,1.626,1.0,0.3815,1,MP90
26,2.326,0.0,0.3815,0,MP90
27,1.745,0.0,-0.3815,1,MP90
28,1.438,1.0,0.3815,1,MP90
29,2.725,0.0,0.3815,0,MP90
30,1.865,0.0,0.3815,0,MP90
31,2.49,1.0,0.3815,1,MP90
32,2.355,0.0,0.3815,0,MP90
33,2.819,0.0,0.3815,0,MP90
34,2.052,0.0,0.3815,0,MP90
35,3.258,1.0,0.3815,1,MP90
36,2.991,0.0,0.3815,0,MP90
37,2.569,1.0,0.3815,1,MP90
38,2.728,0.0,0.3815,0,MP90
39,2.265,0.0,0.3815,0,MP90
40,2.754,1.0,0.3815,1,MP90
41,1.799,1.0,0.3815,1,MP90
42,3.297,1.0,-0.3815,0,MP90
43,3.15,1.0,0.3815,1,MP90
44,3.15,0.0,0.3815,0,MP90
45,3.318,1.0,-0.3815,0,MP90
46,2.936,1.0,0.3815,1,MP90
47,2.68,1.0,0.3815,1,MP90
48,1.458,1.0,-0.3815,0,MP90
49,3.156,0.0,0.3815,0,MP90
50,2.251,1.0,0.3815,1,MP90
51,1.413,1.0,0.3815,1,MP90
52,1.149,1.0,0.3815,1,MP90
53,1.049,1.0,0.3815,1,MP90
54,1.502,1.0,0.3815,1,MP90
55,1.901,1.0,-0.3815,0,MP90
56,1.986,1.0,0.3815,1,MP90
57,1.096,1.0,0.3815,1,MP90
58,2.544,0.0,0.3815,0,MP90
59,1.86,1.0,0.3815,1,MP90
60,2.608,1.0,0.3815,1,MP90
61,2.977,1.0,0.3815,1,MP90
62,2.292,0.0,-0.3815,1,MP90
63,2.503,0.0,0.3815,0,MP90
64,2.434,1.0,0.3815,1,MP90
65,2.912,0.0,-0.3815,1,MP90
66,2.734,1.0,0.3815,1,MP90
67,1.3,1.0,0.3815,1,MP90
68,2.152,1.0,0.3815,1,MP90
69,3.322,1.0,-0.3815,0,MP90
70,2.187,0.0,0.3815,0,MP90
71,3.373,0.0,-0.3815,1,MP90
72,2.399,1.0,0.3815,1,MP90
73,1.597,1.0,0.3815,1,MP90
74,1.384,0.0,0.3815,0,MP90
75,1.338,0.0,0.3815,0,MP90
76,1.174,1.0,0.3815,1,MP90
77,1.052,1.0,0.3815,1,MP90
78,1.308,1.0,0.3815,1,MP90
79,1.194,1.0,0.3815,1,MP90
80,1.161,1.0,0.3815,1,MP90
81,1.524,1.0,-0.3815,0,MP90
82,1.663,1.0,0.3815,1,MP90
83,2.69,1.0,-0.3815,0,MP90
84,2.024,0.0,-0.3815,1,MP90
85,1.781,1.0,0.3815,1,MP90
86,1.335,1.0,0.3815,1,MP90
87,3.377,1.0,0.3815,1,MP90
88,2.022,1.0,0.3815,1,MP90
89,2.525,0.0,0.3815,0,MP90
90,4.109,1.0,0.3815,1,MP90
91,1.481,1.0,0.3815,1,MP90
92,1.097,1.0,0.3815,1,MP90
93,2.464,1.0,0.3815,1,MP90
94,4.628,0.0,0.3815,0,MP90
95,2.838,1.0,0.3815,1,MP90
96,1.203,1.0,0.3815,1,MP90
97,1.805,1.0,0.3815,1,MP90
98,1.946,0.0,0.3815,0,MP90
99,1.141,0.0,-0.3815,1,MP90
100,1.45,1.0,0.3815,1,MP90
1,1.783,1.0,0.3815,1,MP90
2,1.341,1.0,0.3815,1,MP90
3,1.262,1.0,0.3815,1,MP90
4,2.175,0.0,0.3815,0,MP90
5,2.162,0.0,0.3815,0,MP90
6,1.255,1.0,0.3815,1,MP90
7,1.646,1.0,0.3815,1,MP90
8,1.394,1.0,0.3815,1,MP90
9,1.37,0.0,0.3815,0,MP90
10,1.085,1.0,-0.3815,0,MP90
11,1.606,1.0,-0.3815,0,MP90
12,1.613,0.0,-0.3815,1,MP90
13,1.458,1.0,0.3815,1,MP90
14,1.177,1.0,0.3815,1,MP90
15,1.832,1.0,0.3815,1,MP90
16,1.483,1.0,0.3815,1,MP90
17,2.997,0.0,0.3815,0,MP90
18,3.582,0.0,-0.3815,1,MP90
19,1.805,1.0,0.3815,1,MP90
20,1.356,1.0,0.3815,1,MP90
21,2.305,0.0,0.3815,0,MP90
22,1.573,0.0,-0.3815,1,MP90
23,2.333,0.0,0.3815,0,MP90
24,2.72,1.0,0.3815,1,MP90
25,2.397,1.0,-0.3815,0,MP90
26,2.439,0.0,0.3815,0,MP90
27,1.923,0.0,0.3815,0,MP90
28,2.811,1.0,-0.3815,0,MP90
29,1.966,1.0,0.3815,1,MP90
30,2.022,1.0,0.3815,1,MP90
31,3.042,0.0,-0.3815,1,MP90
32,2.657,1.0,-0.3815,0,MP90
33,1.245,1.0,0.3815,1,MP90
34,1.454,0.0,0.3815,0,MP90
35,1.957,0.0,0.3815,0,MP90
36,1.938,0.0,-0.3815,1,MP90
37,1.907,1.0,-0.3815,0,MP90
38,1.446,1.0,0.3815,1,MP90
39,2.101,1.0,0.3815,1,MP90
40,1.512,1.0,0.3815,1,MP90
41,3.798,0.0,0.3815,0,MP90
42,1.411,1.0,0.3815,1,MP90
43,1.69,1.0,0.3815,1,MP90
44,2.185,0.0,0.3815,0,MP90
45,1.454,0.0,0.3815,0,MP90
46,2.137,1.0,0.3815,1,MP90
47,1.971,1.0,0.3815,1,MP90
48,1.601,1.0,0.3815,1,MP90
49,1.814,1.0,0.3815,1,MP90
50,2.282,1.0,0.3815,1,MP90
51,1.924,0.0,-0.3815,1,MP90
52,2.253,0.0,0.3815,0,MP90
53,3.331,1.0,0.3815,1,MP90
54,1.338,1.0,-0.3815,0,MP90
55,1.13,1.0,0.3815,1,MP90
56,1.247,1.0,0.3815,1,MP90
57,1.985,1.0,-0.3815,0,MP90
58,1.623,1.0,0.3815,1,MP90
59,2.033,1.0,0.3815,1,MP90
60,1.709,1.0,0.3815,1,MP90
61,1.839,1.0,0.3815,1,MP90
62,1.341,1.0,0.3815,1,MP90
63,2.166,1.0,0.3815,1,MP90
64,4.146,0.0,-0.3815,1,MP90
65,2.174,0.0,-0.3815,1,MP90
66,1.308,1.0,0.3815,1,MP90
67,1.448,1.0,0.3815,1,MP90
68,1.242,1.0,0.3815,1,MP90
69,1.494,1.0,0.3815,1,MP90
70,1.929,1.0,0.3815,1,MP90
71,2.212,1.0,0.3815,1,MP90
72,1.923,1.0,0.3815,1,MP90
73,2.259,1.0,0.3815,1,MP90
74,1.432,1.0,0.3815,1,MP90
75,2.045,1.0,0.3815,1,MP90
76,4.138,1.0,0.3815,1,MP90
77,1.307,1.0,0.3815,1,MP90
78,1.66,1.0,0.3815,1,MP90
79,2.058,1.0,0.3815,1,MP90
80,3.483,0.0,0.3815,0,MP90
81,1.954,1.0,0.3815,1,MP90
82,1.374,1.0,0.3815,1,MP90
83,1.274,1.0,0.3815,1,MP90
84,2.25,0.0,0.3815,0,MP90
85,1.484,0.0,0.3815,0,MP90
86,1.452,1.0,-0.3815,0,MP90
87,1.39,1.0,0.3815,1,MP90
88,2.408,0.0,0.3815,0,MP90
89,2.467,1.0,0.3815,1,MP90
90,3.517,0.0,0.3815,0,MP90
91,3.084,1.0,-0.3815,0,MP90
92,1.957,1.0,0.3815,1,MP90
93,1.817,1.0,0.3815,1,MP90
94,2.156,1.0,0.3815,1,MP90
95,1.73,1.0,0.3815,1,MP90
96,1.418,0.0,-0.3815,1,MP90
97,1.686,0.0,0.3815,0,MP90
98,1.469,0.0,-0.3815,1,MP90
99,1.753,1.0,0.3815,1,MP90
100,1.626,1.0,0.3815,1,MP90
1,1.314,1.0,-0.3815,0,MP90
2,1.995,1.0,-0.3815,0,MP90
3,1.539,1.0,-0.3815,0,MP90
4,2.174,1.0,-0.3815,0,MP90
5,3.148,1.0,-0.3815,0,MP90
6,1.924,1.0,0.3815,1,MP90
7,1.26,1.0,0.3815,1,MP90
8,1.158,1.0,0.3815,1,MP90
9,1.726,1.0,-0.3815,0,MP90
10,1.708,1.0,0.3815,1,MP90
11,1.37,1.0,0.3815,1,MP90
12,2.202,1.0,-0.3815,0,MP90
13,1.651,0.0,0.3815,0,MP90
14,1.756,0.0,0.3815,0,MP90
15,2.314,0.0,0.3815,0,MP90
16,2.107,0.0,-0.3815,1,MP90
17,1.438,0.0,0.3815,0,MP90
18,3.425,0.0,-0.3815,1,MP90
19,2.269,1.0,-0.3815,0,MP90
20,2.115,1.0,-0.3815,0,MP90
21,4.788,0.0,0.3815,0,MP90
22,1.626,1.0,0.3815,1,MP90
23,1.572,1.0,0.3815,1,MP90
24,1.447,0.0,-0.3815,1,MP90
25,4.56,0.0,0.3815,0,MP90
26,1.635,1.0,0.3815,1,MP90
27,2.254,1.0,-0.3815,0,MP90
28,1.498,1.0,-0.3815,0,MP90
29,1.636,1.0,-0.3815,0,MP90
30,1.045,1.0,0.3815,1,MP90
31,1.414,1.0,0.3815,1,MP90
32,1.368,1.0,0.3815,1,MP90
33,1.245,1.0,0.3815,1,MP90
34,1.207,1.0,0.3815,1,MP90
35,2.208,1.0,-0.3815,0,MP90
36,2.201,1.0,-0.3815,0,MP90
37,1.738,1.0,0.3815,1,MP90
38,1.871,1.0,-0.3815,0,MP90
39,1.419,1.0,0.3815,1,MP90
40,2.501,0.0,-0.3815,1,MP90
41,2.333,0.0,-0.3815,1,MP90
42,3.356,0.0,0.3815,0,MP90
43,4.41,0.0,-0.3815,1,MP90
44,3.776,0.0,0.3815,0,MP90
45,1.939,1.0,0.3815,1,MP90
46,2.811,0.0,-0.3815,1,MP90
47,1.705,0.0,-0.3815,1,MP90
48,3.643,1.0,-0.3815,0,MP90
49,2.982,0.0,0.3815,0,MP90
50,3.684,1.0,-0.3815,0,MP90
51,2.929,0.0,0.3815,0,MP90
52,4.56,0.0,0.3815,0,MP90
53,3.104,1.0,-0.3815,0,MP90
54,2.858,0.0,0.3815,0,MP90
55,2.54,1.0,-0.3815,0,MP90
56,2.655,1.0,0.3815,1,MP90
57,2.931,0.0,0.3815,0,MP90
58,2.52,0.0,0.3815,0,MP90
59,2.052,0.0,0.3815,0,MP90
60,4.291,1.0,0.3815,1,MP90
61,1.683,1.0,0.3815,1,MP90
62,4.383,0.0,-0.3815,1,MP90
63,3.052,1.0,-0.3815,0,MP90
64,3.24,1.0,-0.3815,0,MP90
65,4.085,1.0,0.3815,1,MP90
66,4.092,0.0,-0.3815,1,MP90
67,2.885,1.0,-0.3815,0,MP90
68,1.432,1.0,0.3815,1,MP90
69,1.429,1.0,-0.3815,0,MP90
70,3.228,0.0,0.3815,0,MP90
71,2.692,0.0,0.3815,0,MP90
72,2.994,1.0,-0.3815,0,MP90
73,2.252,1.0,0.3815,1,MP90
74,2.977,0.0,0.3815,0,MP90
75,3.832,1.0,0.3815,1,MP90
76,1.384,1.0,0.3815,1,MP90
77,1.667,0.0,-0.3815,1,MP90
78,4.099,1.0,-0.3815,0,MP90
79,1.324,0.0,-0.3815,1,MP90
80,1.803,1.0,-0.3815,0,MP90
81,1.494,0.0,-0.3815,1,MP90
82,1.411,1.0,0.3815,1,MP90
83,4.021,1.0,-0.3815,0,MP90
84,2.032,0.0,-0.3815,1,MP90
85,2.757,1.0,0.3815,1,MP90
86,0.067,0.0,0.3815,0,MP90
87,1.523,0.0,-0.3815,1,MP90
88,1.608,1.0,0.3815,1,MP90
89,1.99,1.0,-0.3815,0,MP90
90,2.129,1.0,-0.3815,0,MP90
91,1.809,1.0,0.3815,1,MP90
92,1.6,1.0,0.3815,1,MP90
93,2.728,0.0,-0.3815,1,MP90
94,1.29,1.0,-0.3815,0,MP90
95,1.824,0.0,-0.3815,1,MP90
96,2.071,1.0,-0.3815,0,MP90
97,1.966,1.0,-0.3815,0,MP90
98,2.295,1.0,0.3815,1,MP90
99,1.862,1.0,-0.3815,0,MP90
100,2.973,1.0,0.3815,1,MP90
1,3.69,1.0,-0.3815,0,MP90
2,2.221,0.0,-0.3815,1,MP90
3,2.681,0.0,-0.3815,1,MP90
4,1.215,0.0,-0.3815,1,MP90
5,1.971,0.0,0.3815,0,MP90
6,1.687,0.0,0.3815,0,MP90
7,2.434,0.0,-0.3815,1,MP90
8,2.147,1.0,0.3815,1,MP90
9,2.423,0.0,-0.3815,1,MP90
10,2.785,0.0,0.3815,0,MP90
11,2.85,0.0,0.3815,0,MP90
12,5.319,0.0,0.3815,0,MP90
13,5.599,0.0,-0.3815,1,MP90
14,5.848,1.0,0.3815,1,MP90
15,2.129,1.0,0.3815,1,MP90
16,1.474,0.0,-0.3815,1,MP90
17,3.194,0.0,-0.3815,1,MP90
18,3.609,0.0,0.3815,0,MP90
19,3.233,0.0,0.3815,0,MP90
20,3.847,1.0,0.3815,1,MP90
21,5.207,1.0,0.3815,1,MP90
22,1.261,0.0,-0.3815,1,MP90
23,3.404,0.0,0.3815,0,MP90
24,5.205,0.0,-0.3815,1,MP90
25,3.108,0.0,0.3815,0,MP90
26,3.653,1.0,-0.3815,0,MP90
27,6.056,0.0,0.3815,0,MP90
28,3.281,0.0,0.3815,0,MP90
29,3.273,0.0,0.3815,0,MP90
30,3.347,0.0,0.3815,0,MP90
31,4.162,0.0,0.3815,0,MP90
32,4.436,1.0,0.3815,1,MP90
33,3.319,1.0,-0.3815,0,MP90
34,2.84,1.0,0.3815,1,MP90
35,3.276,0.0,0.3815,0,MP90
36,8.263,0.0,0.3815,0,MP90
37,5.341,1.0,-0.3815,0,MP90
38,4.202,1.0,-0.3815,0,MP90
39,3.04,0.0,-0.3815,1,MP90
40,4.806,1.0,-0.3815,0,MP90
41,5.914,1.0,0.3815,1,MP90
42,6.451,0.0,-0.3815,1,MP90
43,5.77,1.0,0.3815,1,MP90
44,5.653,0.0,-0.3815,1,MP90
45,7.227,1.0,0.3815,1,MP90
46,4.906,1.0,-0.3815,0,MP90
47,5.385,0.0,-0.3815,1,MP90
48,6.657,0.0,-0.3815,1,MP90
49,6.8,0.0,-0.3815,1,MP90
50,7.856,0.0,0.3815,0,MP90
51,3.973,1.0,-0.3815,0,MP90
52,2.328,1.0,0.3815,1,MP90
53,2.142,1.0,0.3815,1,MP90
54,2.328,0.0,-0.3815,1,MP90
55,1.714,1.0,0.3815,1,MP90
56,2.066,0.0,0.3815,0,MP90
57,3.316,1.0,-0.3815,0,MP90
58,3.932,0.0,-0.3815,1,MP90
59,5.091,0.0,0.3815,0,MP90
60,5.325,0.0,-0.3815,1,MP90
61,5.213,1.0,0.3815,1,MP90
62,4.608,1.0,0.3815,1,MP90
63,6.776,1.0,-0.3815,0,MP90
64,6.548,0.0,0.3815,0,MP90
65,6.999,1.0,-0.3815,0,MP90
66,6.15,1.0,-0.3815,0,MP90
67,5.073,1.0,0.3815,1,MP90
68,6.266,0.0,0.3815,0,MP90
69,2.231,1.0,0.3815,1,MP90
70,2.231,0.0,-0.3815,1,MP90
71,2.941,1.0,0.3815,1,MP90
72,5.549,0.0,-0.3815,1,MP90
73,2.634,1.0,-0.3815,0,MP90
74,3.055,0.0,0.3815,0,MP90
75,3.614,0.0,0.3815,0,MP90
76,5.234,1.0,-0.3815,0,MP90
77,4.461,0.0,-0.3815,1,MP90
78,6.03,0.0,-0.3815,1,MP90
79,1.729,1.0,0.3815,1,MP90
80,2.866,1.0,-0.3815,0,MP90
81,3.474,0.0,-0.3815,1,MP90
82,3.995,0.0,0.3815,0,MP90
83,3.696,0.0,-0.3815,1,MP90
NA,NA,NA,0.3815,0,MP90
1,4.934,0.0,0.3815,0,MP90
2,2.571,1.0,0.3815,1,MP90
3,3.276,1.0,0.3815,1,MP90
4,3.503,0.0,-0.3815,1,MP90
5,3.538,1.0,-0.3815,0,MP90
6,2.654,1.0,0.3815,1,MP90
7,3.821,0.0,-0.3815,1,MP90
8,3.026,1.0,0.3815,1,MP90
9,1.841,1.0,-0.3815,0,MP90
10,1.528,0.0,-0.3815,1,MP90
11,6.259,0.0,-0.3815,1,MP90
12,5.067,1.0,-0.3815,0,MP90
13,3.488,0.0,0.3815,0,MP90
14,3.335,1.0,-0.3815,0,MP90
15,1.788,1.0,-0.3815,0,MP90
16,2.493,1.0,-0.3815,0,MP90
1,2.297,1.0,0.197,1,RR92
2,3.342,0.0,0.197,0,RR92
3,1.96,0.0,0.197,0,RR92
4,2.515,1.0,0.197,1,RR92
5,1.367,1.0,0.197,1,RR92
6,1.43,1.0,-0.197,0,RR92
7,2.16,1.0,-0.197,0,RR92
8,1.645,0.0,0.197,0,RR92
9,1.743,0.0,0.197,0,RR92
10,1.615,1.0,0.197,1,RR92
11,1.303,1.0,0.197,1,RR92
12,2.678,1.0,0.197,1,RR92
13,2.51,0.0,0.197,0,RR92
14,1.958,1.0,0.197,1,RR92
15,1.647,0.0,0.197,0,RR92
16,1.287,1.0,0.197,1,RR92
17,1.659,0.0,0.197,0,RR92
18,1.466,1.0,0.197,1,RR92
19,1.359,1.0,0.197,1,RR92
20,2.436,1.0,0.197,1,RR92
21,1.424,1.0,0.197,1,RR92
22,1.609,0.0,-0.197,1,RR92
23,1.064,1.0,0.197,1,RR92
24,3.167,0.0,0.197,0,RR92
25,2.105,1.0,0.197,1,RR92
26,1.721,1.0,0.197,1,RR92
27,1.97,0.0,0.197,0,RR92
28,2.258,1.0,0.197,1,RR92
29,2.065,0.0,0.197,0,RR92
30,1.838,1.0,0.197,1,RR92
31,1.776,1.0,-0.197,0,RR92
32,1.477,1.0,0.197,1,RR92
33,1.484,1.0,0.197,1,RR92
34,1.229,1.0,0.197,1,RR92
35,1.26,1.0,0.197,1,RR92
36,1.913,0.0,-0.197,1,RR92
37,2.279,1.0,0.197,1,RR92
38,1.169,1.0,0.197,1,RR92
39,1.352,1.0,0.197,1,RR92
40,1.464,0.0,-0.197,1,RR92
41,3.357,0.0,-0.197,1,RR92
42,1.378,1.0,0.197,1,RR92
43,3.032,0.0,0.197,0,RR92
44,1.982,0.0,0.197,0,RR92
45,1.806,0.0,-0.197,1,RR92
46,1.881,0.0,0.197,0,RR92
47,1.744,1.0,0.197,1,RR92
48,1.889,0.0,0.197,0,RR92
49,1.799,0.0,-0.197,1,RR92
50,2.17,0.0,0.197,0,RR92
51,1.469,1.0,0.197,1,RR92
52,2.255,0.0,0.197,0,RR92
53,2.151,0.0,0.197,0,RR92
54,2.56,0.0,0.197,0,RR92
55,2.013,0.0,0.197,0,RR92
56,1.889,0.0,0.197,0,RR92
57,1.845,0.0,0.197,0,RR92
58,1.996,0.0,-0.197,1,RR92
59,1.97,0.0,0.197,0,RR92
60,2.03,0.0,0.197,0,RR92
61,1.933,0.0,0.197,0,RR92
62,1.668,0.0,-0.197,1,RR92
63,1.926,0.0,-0.197,1,RR92
64,2.604,0.0,0.197,0,RR92
65,1.529,0.0,-0.197,1,RR92
66,1.867,0.0,-0.197,1,RR92
67,1.669,1.0,0.197,1,RR92
68,1.269,1.0,0.197,1,RR92
69,1.25,1.0,0.197,1,RR92
70,2.558,0.0,0.197,0,RR92
71,2.081,0.0,0.197,0,RR92
72,2.82,1.0,-0.197,0,RR92
73,1.254,1.0,0.197,1,RR92
74,0.986,1.0,0.197,1,RR92
75,1.834,1.0,0.197,1,RR92
76,2.311,0.0,0.197,0,RR92
77,2.486,0.0,0.197,0,RR92
78,1.252,1.0,0.197,1,RR92
79,1.519,1.0,0.197,1,RR92
80,1.422,1.0,0.197,1,RR92
81,2.181,0.0,0.197,0,RR92
82,1.195,1.0,0.197,1,RR92
83,2.328,0.0,-0.197,1,RR92
84,1.873,0.0,0.197,0,RR92
85,1.807,0.0,0.197,0,RR92
86,1.972,1.0,0.197,1,RR92
87,2.116,0.0,0.197,0,RR92
88,1.985,0.0,0.197,0,RR92
89,1.767,0.0,-0.197,1,RR92
90,2.279,0.0,0.197,0,RR92
91,2.002,0.0,0.197,0,RR92
92,2.068,0.0,-0.197,1,RR92
93,2.023,0.0,0.197,0,RR92
94,2.063,1.0,0.197,1,RR92
95,1.987,1.0,0.197,1,RR92
96,3.175,0.0,-0.197,1,RR92
97,1.993,0.0,0.197,0,RR92
98,2.456,0.0,0.197,0,RR92
99,2.075,1.0,-0.197,0,RR92
100,1.948,0.0,0.197,0,RR92
1,1.847,0.0,0.197,0,RR92
2,2.042,0.0,0.197,0,RR92
3,1.378,1.0,0.197,1,RR92
4,1.317,1.0,0.197,1,RR92
5,1.261,1.0,0.197,1,RR92
6,1.061,0.0,-0.197,1,RR92
7,1.352,0.0,-0.197,1,RR92
8,1.377,0.0,0.197,0,RR92
9,1.168,1.0,0.197,1,RR92
10,1.591,0.0,0.197,0,RR92
11,1.951,1.0,0.197,1,RR92
12,1.287,1.0,0.197,1,RR92
13,1.434,0.0,0.197,0,RR92
14,1.84,1.0,0.197,1,RR92
15,1.16,1.0,0.197,1,RR92
16,1.262,0.0,0.197,0,RR92
17,1.675,1.0,0.197,1,RR92
18,1.353,1.0,0.197,1,RR92
19,2.279,0.0,0.197,0,RR92
20,1.552,1.0,0.197,1,RR92
21,1.405,1.0,0.197,1,RR92
22,1.873,0.0,0.197,0,RR92
23,2.423,0.0,0.197,0,RR92
24,2.161,0.0,0.197,0,RR92
25,1.628,0.0,0.197,0,RR92
26,1.457,1.0,0.197,1,RR92
27,2.03,0.0,0.197,0,RR92
28,1.669,0.0,0.197,0,RR92
29,2.117,0.0,0.197,0,RR92
30,1.911,0.0,0.197,0,RR92
31,1.477,1.0,0.197,1,RR92
32,1.269,0.0,-0.197,1,RR92
33,1.756,1.0,0.197,1,RR92
34,2.598,1.0,-0.197,0,RR92
35,1.837,0.0,-0.197,1,RR92
36,2.066,0.0,0.197,0,RR92
37,1.791,0.0,0.197,0,RR92
38,1.453,0.0,0.197,0,RR92
39,2.285,1.0,-0.197,0,RR92
40,2.573,0.0,-0.197,1,RR92
41,2.247,0.0,0.197,0,RR92
42,1.51,1.0,0.197,1,RR92
43,1.844,0.0,0.197,0,RR92
44,1.809,0.0,0.197,0,RR92
45,1.855,0.0,0.197,0,RR92
46,1.921,1.0,0.197,1,RR92
47,1.676,1.0,0.197,1,RR92
48,1.304,0.0,0.197,0,RR92
49,1.714,0.0,0.197,0,RR92
50,2.361,0.0,-0.197,1,RR92
51,2.382,0.0,0.197,0,RR92
52,2.532,0.0,0.197,0,RR92
53,2.312,0.0,0.197,0,RR92
54,2.347,0.0,0.197,0,RR92
55,1.872,0.0,0.197,0,RR92
56,1.966,0.0,-0.197,1,RR92
57,1.598,0.0,-0.197,1,RR92
58,1.918,0.0,0.197,0,RR92
59,1.522,0.0,0.197,0,RR92
60,1.724,0.0,0.197,0,RR92
61,2.226,0.0,0.197,0,RR92
62,1.445,0.0,-0.197,1,RR92
63,3.297,0.0,0.197,0,RR92
64,2.482,1.0,-0.197,0,RR92
65,1.887,1.0,0.197,1,RR92
66,1.8,1.0,-0.197,0,RR92
67,1.992,0.0,-0.197,1,RR92
68,1.744,1.0,0.197,1,RR92
69,1.591,0.0,0.197,0,RR92
70,1.659,0.0,0.197,0,RR92
71,1.666,1.0,0.197,1,RR92
72,1.638,0.0,-0.197,1,RR92
73,1.868,1.0,0.197,1,RR92
74,1.587,1.0,0.197,1,RR92
75,2.174,1.0,0.197,1,RR92
76,1.757,1.0,0.197,1,RR92
77,1.477,1.0,0.197,1,RR92
78,1.699,1.0,-0.197,0,RR92
79,1.59,1.0,0.197,1,RR92
80,1.727,1.0,0.197,1,RR92
81,1.508,1.0,0.197,1,RR92
82,1.392,1.0,0.197,1,RR92
83,2.322,1.0,0.197,1,RR92
84,2.952,1.0,0.197,1,RR92
85,2.13,1.0,0.197,1,RR92
86,1.299,1.0,0.197,1,RR92
87,2.244,0.0,0.197,0,RR92
88,2.557,0.0,0.197,0,RR92
89,1.391,0.0,-0.197,1,RR92
90,1.929,0.0,0.197,0,RR92
91,2.234,1.0,0.197,1,RR92
92,2.226,0.0,0.197,0,RR92
93,1.383,1.0,0.197,1,RR92
94,1.87,0.0,-0.197,1,RR92
95,1.62,0.0,0.197,0,RR92
96,2.103,0.0,0.197,0,RR92
97,1.6,0.0,0.197,0,RR92
98,1.546,0.0,0.197,0,RR92
99,1.471,0.0,-0.197,1,RR92
100,1.932,0.0,-0.197,1,RR92
1,2.598,0.0,0.197,0,RR92
2,2.153,1.0,0.197,1,RR92
3,2.085,1.0,0.197,1,RR92
4,1.66,1.0,0.197,1,RR92
5,1.414,1.0,0.197,1,RR92
6,1.274,1.0,0.197,1,RR92
7,1.426,1.0,0.197,1,RR92
8,1.737,0.0,-0.197,1,RR92
9,1.747,1.0,0.197,1,RR92
10,1.793,0.0,-0.197,1,RR92
11,2.266,0.0,0.197,0,RR92
12,1.53,1.0,0.197,1,RR92
13,1.85,1.0,0.197,1,RR92
14,1.535,1.0,0.197,1,RR92
15,1.225,1.0,0.197,1,RR92
16,1.616,0.0,0.197,0,RR92
17,1.821,0.0,0.197,0,RR92
18,1.473,1.0,0.197,1,RR92
19,1.437,1.0,-0.197,0,RR92
20,1.15,0.0,-0.197,1,RR92
21,1.52,1.0,0.197,1,RR92
22,1.959,0.0,0.197,0,RR92
23,1.747,1.0,0.197,1,RR92
24,2.003,0.0,0.197,0,RR92
25,1.378,0.0,0.197,0,RR92
26,2.099,0.0,0.197,0,RR92
27,1.381,1.0,0.197,1,RR92
28,1.52,0.0,-0.197,1,RR92
29,1.253,0.0,0.197,0,RR92
30,1.224,1.0,0.197,1,RR92
31,1.152,0.0,0.197,0,RR92
32,1.474,0.0,0.197,0,RR92
33,2.071,0.0,0.197,0,RR92
34,1.432,0.0,-0.197,1,RR92
35,1.366,1.0,0.197,1,RR92
36,1.464,0.0,0.197,0,RR92
37,1.238,0.0,0.197,0,RR92
38,1.395,0.0,0.197,0,RR92
39,1.476,1.0,-0.197,0,RR92
40,1.534,0.0,0.197,0,RR92
41,1.409,0.0,0.197,0,RR92
42,1.714,1.0,0.197,1,RR92
43,2.726,0.0,0.197,0,RR92
44,1.752,1.0,0.197,1,RR92
45,2.908,0.0,0.197,0,RR92
46,2.415,1.0,0.197,1,RR92
47,2.424,0.0,-0.197,1,RR92
48,2.147,1.0,0.197,1,RR92
49,1.634,1.0,0.197,1,RR92
50,1.475,1.0,0.197,1,RR92
51,1.648,0.0,-0.197,1,RR92
52,1.772,0.0,-0.197,1,RR92
53,2.15,0.0,0.197,0,RR92
54,1.805,1.0,-0.197,0,RR92
55,1.342,0.0,0.197,0,RR92
56,2.364,0.0,0.197,0,RR92
57,1.781,1.0,0.197,1,RR92
58,1.854,0.0,-0.197,1,RR92
59,1.234,0.0,-0.197,1,RR92
60,1.721,0.0,-0.197,1,RR92
61,1.25,0.0,-0.197,1,RR92
62,1.612,0.0,0.197,0,RR92
63,2.02,0.0,0.197,0,RR92
64,1.377,1.0,0.197,1,RR92
65,1.976,0.0,0.197,0,RR92
66,1.86,0.0,-0.197,1,RR92
67,1.808,0.0,0.197,0,RR92
68,1.436,1.0,0.197,1,RR92
69,2.308,0.0,0.197,0,RR92
70,1.527,1.0,0.197,1,RR92
71,1.842,1.0,0.197,1,RR92
72,1.84,0.0,0.197,0,RR92
73,2.169,0.0,0.197,0,RR92
74,1.626,1.0,0.197,1,RR92
75,2.269,1.0,0.197,1,RR92
76,1.798,0.0,-0.197,1,RR92
77,1.839,1.0,0.197,1,RR92
78,2.016,0.0,0.197,0,RR92
79,2.162,0.0,-0.197,1,RR92
80,1.397,0.0,0.197,0,RR92
81,1.821,0.0,0.197,0,RR92
82,1.875,0.0,-0.197,1,RR92
83,2.757,0.0,0.197,0,RR92
84,2.093,0.0,0.197,0,RR92
85,1.988,1.0,0.197,1,RR92
86,2.205,1.0,0.197,1,RR92
87,1.5,0.0,-0.197,1,RR92
88,2.1,0.0,0.197,0,RR92
89,1.876,1.0,0.197,1,RR92
90,2.15,0.0,0.197,0,RR92
91,1.819,1.0,0.197,1,RR92
92,2.485,1.0,0.197,1,RR92
93,2.029,1.0,0.197,1,RR92
94,3.016,0.0,0.197,0,RR92
95,2.526,1.0,0.197,1,RR92
96,2.62,0.0,0.197,0,RR92
97,2.178,1.0,0.197,1,RR92
98,2.651,1.0,0.197,1,RR92
99,2.154,1.0,0.197,1,RR92
100,1.891,0.0,0.197,0,RR92
1,2.096,0.0,0.197,0,RR92
2,1.338,0.0,-0.197,1,RR92
3,1.951,1.0,0.197,1,RR92
4,1.381,0.0,-0.197,1,RR92
5,1.602,0.0,-0.197,1,RR92
6,1.451,1.0,-0.197,0,RR92
7,2.616,0.0,-0.197,1,RR92
8,2.089,0.0,0.197,0,RR92
9,1.866,1.0,-0.197,0,RR92
10,1.418,0.0,-0.197,1,RR92
11,2.106,0.0,-0.197,1,RR92
12,1.557,0.0,-0.197,1,RR92
13,1.463,0.0,-0.197,1,RR92
14,1.532,0.0,-0.197,1,RR92
15,1.554,0.0,0.197,0,RR92
16,1.328,1.0,0.197,1,RR92
17,1.347,0.0,-0.197,1,RR92
18,1.421,0.0,-0.197,1,RR92
19,1.518,0.0,-0.197,1,RR92
20,1.582,1.0,0.197,1,RR92
21,2.231,0.0,0.197,0,RR92
22,1.8,0.0,0.197,0,RR92
23,1.379,0.0,-0.197,1,RR92
24,1.959,1.0,0.197,1,RR92
25,1.579,0.0,0.197,0,RR92
26,1.924,1.0,0.197,1,RR92
27,1.614,0.0,0.197,0,RR92
28,2.046,1.0,0.197,1,RR92
29,1.531,0.0,-0.197,1,RR92
30,2.122,1.0,0.197,1,RR92
31,2.099,0.0,0.197,0,RR92
32,2.911,0.0,0.197,0,RR92
33,1.577,0.0,-0.197,1,RR92
34,1.55,1.0,0.197,1,RR92
35,1.689,0.0,-0.197,1,RR92
36,1.316,1.0,0.197,1,RR92
37,1.758,0.0,0.197,0,RR92
38,1.871,1.0,0.197,1,RR92
39,2.97,0.0,-0.197,1,RR92
40,1.746,1.0,0.197,1,RR92
41,2.102,1.0,-0.197,0,RR92
42,1.713,0.0,0.197,0,RR92
43,2.527,0.0,0.197,0,RR92
44,1.264,0.0,0.197,0,RR92
45,1.527,0.0,0.197,0,RR92
46,1.561,0.0,0.197,0,RR92
47,2.95,1.0,0.197,1,RR92
48,1.981,0.0,0.197,0,RR92
49,1.845,0.0,-0.197,1,RR92
50,2.443,0.0,-0.197,1,RR92
51,2.332,0.0,-0.197,1,RR92
52,2.042,0.0,-0.197,1,RR92
53,1.758,0.0,-0.197,1,RR92
54,3.15,0.0,-0.197,1,RR92
55,2.49,0.0,-0.197,1,RR92
56,2.869,0.0,-0.197,1,RR92
57,1.859,0.0,-0.197,1,RR92
58,1.889,0.0,-0.197,1,RR92
59,1.889,0.0,-0.197,1,RR92
60,2.458,0.0,0.197,0,RR92
61,2.856,0.0,0.197,0,RR92
62,1.93,0.0,0.197,0,RR92
63,1.781,0.0,-0.197,1,RR92
64,1.786,0.0,-0.197,1,RR92
65,2.238,0.0,-0.197,1,RR92
66,1.711,0.0,0.197,0,RR92
67,2.344,0.0,0.197,0,RR92
68,1.596,0.0,-0.197,1,RR92
69,2.308,0.0,-0.197,1,RR92
70,2.125,0.0,-0.197,1,RR92
71,2.807,1.0,0.197,1,RR92
72,2.795,0.0,0.197,0,RR92
73,2.317,1.0,-0.197,0,RR92
74,3.329,1.0,0.197,1,RR92
75,2.207,1.0,0.197,1,RR92
76,2.676,1.0,-0.197,0,RR92
77,2.548,0.0,0.197,0,RR92
78,2.045,1.0,0.197,1,RR92
79,1.615,0.0,-0.197,1,RR92
80,2.049,0.0,0.197,0,RR92
81,2.364,0.0,0.197,0,RR92
82,1.813,0.0,0.197,0,RR92
83,1.785,0.0,0.197,0,RR92
84,1.668,0.0,-0.197,1,RR92
85,1.583,1.0,-0.197,0,RR92
86,1.843,0.0,-0.197,1,RR92
87,2.556,0.0,0.197,0,RR92
88,1.808,0.0,0.197,0,RR92
89,1.714,0.0,-0.197,1,RR92
90,2.575,0.0,0.197,0,RR92
91,2.955,0.0,-0.197,1,RR92
92,2.803,1.0,-0.197,0,RR92
93,2.597,0.0,-0.197,1,RR92
94,2.065,0.0,0.197,0,RR92
95,2.043,0.0,0.197,0,RR92
96,2.06,1.0,0.197,1,RR92
97,2.25,1.0,-0.197,0,RR92
98,1.425,1.0,-0.197,0,RR92
99,3.185,0.0,-0.197,1,RR92
100,1.621,0.0,0.197,0,RR92
1,20.8,0.0,-0.197,1,RR92
2,1.693,0.0,-0.197,1,RR92
3,1.336,0.0,0.197,0,RR92
4,1.431,0.0,-0.197,1,RR92
5,1.991,1.0,0.197,1,RR92
6,1.312,0.0,-0.197,1,RR92
7,1.642,1.0,-0.197,0,RR92
8,1.578,0.0,-0.197,1,RR92
9,1.695,1.0,0.197,1,RR92
10,1.587,1.0,0.197,1,RR92
11,1.504,1.0,0.197,1,RR92
12,1.27,1.0,-0.197,0,RR92
13,1.334,0.0,-0.197,1,RR92
14,1.943,1.0,-0.197,0,RR92
15,2.459,1.0,0.197,1,RR92
16,1.634,1.0,0.197,1,RR92
17,2.282,0.0,0.197,0,RR92
18,2.101,1.0,-0.197,0,RR92
19,3.546,1.0,0.197,1,RR92
20,2.397,0.0,0.197,0,RR92
21,1.579,0.0,-0.197,1,RR92
22,1.433,1.0,0.197,1,RR92
23,1.748,0.0,-0.197,1,RR92
24,1.417,0.0,0.197,0,RR92
25,2.653,0.0,-0.197,1,RR92
26,2.018,1.0,0.197,1,RR92
27,2.484,1.0,0.197,1,RR92
28,1.952,0.0,-0.197,1,RR92
29,1.936,1.0,0.197,1,RR92
30,2.192,1.0,0.197,1,RR92
31,3.055,0.0,0.197,0,RR92
32,2.226,0.0,0.197,0,RR92
33,2.687,0.0,-0.197,1,RR92
34,1.947,1.0,-0.197,0,RR92
35,2.126,0.0,-0.197,1,RR92
36,1.892,1.0,-0.197,0,RR92
37,1.932,1.0,-0.197,0,RR92
38,1.753,1.0,-0.197,0,RR92
39,1.743,0.0,0.197,0,RR92
40,1.742,1.0,-0.197,0,RR92
41,1.56,1.0,0.197,1,RR92
42,2.074,0.0,-0.197,1,RR92
43,1.395,1.0,0.197,1,RR92
44,1.848,1.0,0.197,1,RR92
45,2.805,1.0,0.197,1,RR92
46,1.825,0.0,0.197,0,RR92
47,1.565,0.0,-0.197,1,RR92
48,2.052,0.0,-0.197,1,RR92
49,2.883,1.0,-0.197,0,RR92
50,1.82,0.0,0.197,0,RR92
51,2.591,1.0,0.197,1,RR92
52,2.264,1.0,-0.197,0,RR92
53,1.756,0.0,0.197,0,RR92
54,2.218,0.0,0.197,0,RR92
55,1.713,0.0,-0.197,1,RR92
56,2.185,0.0,0.197,0,RR92
57,1.794,0.0,-0.197,1,RR92
58,2.29,1.0,0.197,1,RR92
59,1.695,0.0,-0.197,1,RR92
60,2.487,0.0,0.197,0,RR92
61,1.565,0.0,-0.197,1,RR92
62,2.003,0.0,-0.197,1,RR92
63,2.155,0.0,-0.197,1,RR92
64,1.968,0.0,0.197,0,RR92
65,1.992,0.0,-0.197,1,RR92
66,2.253,1.0,-0.197,0,RR92
67,1.91,1.0,0.197,1,RR92
68,2.345,1.0,-0.197,0,RR92
69,2.853,0.0,-0.197,1,RR92
70,2.644,0.0,-0.197,1,RR92
71,2.294,0.0,0.197,0,RR92
72,1.928,1.0,0.197,1,RR92
73,1.827,1.0,-0.197,0,RR92
74,1.624,1.0,0.197,1,RR92
75,2.21,1.0,-0.197,0,RR92
76,2.138,0.0,-0.197,1,RR92
77,2.166,0.0,-0.197,1,RR92
78,1.962,0.0,-0.197,1,RR92
79,2.144,0.0,0.197,0,RR92
80,2.053,0.0,0.197,0,RR92
81,2.238,1.0,-0.197,0,RR92
82,1.815,0.0,-0.197,1,RR92
83,1.882,0.0,-0.197,1,RR92
84,2.823,0.0,0.197,0,RR92
85,1.803,1.0,0.197,1,RR92
86,1.605,1.0,0.197,1,RR92
87,1.92,0.0,-0.197,1,RR92
88,2.581,1.0,-0.197,0,RR92
89,1.678,1.0,-0.197,0,RR92
90,1.749,0.0,-0.197,1,RR92
91,2.402,0.0,-0.197,1,RR92
92,2.323,0.0,0.197,0,RR92
93,2.196,0.0,0.197,0,RR92
94,1.792,1.0,0.197,1,RR92
95,1.789,0.0,0.197,0,RR92
96,2.102,1.0,0.197,1,RR92
97,2.089,0.0,0.197,0,RR92
98,2.341,0.0,0.197,0,RR92
99,1.979,0.0,0.197,0,RR92
100,2.135,0.0,0.197,0,RR92
1,1.245,0.0,-2.325,1,ED77
2,1.251,1.0,2.325,1,ED77
3,1.104,1.0,2.325,1,ED77
4,1.134,1.0,2.325,1,ED77
5,1.253,1.0,2.325,1,ED77
6,1.053,1.0,2.325,1,ED77
7,1.294,1.0,2.325,1,ED77
8,1.171,1.0,2.325,1,ED77
9,1.426,1.0,2.325,1,ED77
10,1.045,1.0,2.325,1,ED77
11,1.184,1.0,2.325,1,ED77
12,1.827,0.0,2.325,0,ED77
13,1.878,1.0,2.325,1,ED77
14,1.034,0.0,-2.325,1,ED77
15,1.096,1.0,2.325,1,ED77
16,1.827,1.0,2.325,1,ED77
17,1.58,1.0,2.325,1,ED77
18,0.919,1.0,2.325,1,ED77
19,0.846,1.0,2.325,1,ED77
20,1.046,0.0,-2.325,1,ED77
21,1.675,0.0,-2.325,1,ED77
22,1.174,1.0,2.325,1,ED77
23,1.586,1.0,2.325,1,ED77
24,1.435,1.0,2.325,1,ED77
25,0.991,0.0,-2.325,1,ED77
26,0.911,1.0,2.325,1,ED77
27,1.06,1.0,2.325,1,ED77
28,0.933,1.0,2.325,1,ED77
29,0.726,1.0,2.325,1,ED77
30,1.562,0.0,2.325,0,ED77
31,1.22,1.0,2.325,1,ED77
32,1.105,1.0,2.325,1,ED77
33,0.819,0.0,-2.325,1,ED77
34,0.813,1.0,2.325,1,ED77
35,0.673,0.0,-2.325,1,ED77
36,1.047,1.0,2.325,1,ED77
37,0.644,0.0,-2.325,1,ED77
38,0.796,1.0,2.325,1,ED77
39,0.933,1.0,2.325,1,ED77
40,0.686,0.0,-2.325,1,ED77
41,0.646,1.0,2.325,1,ED77
42,0.549,0.0,-2.325,1,ED77
43,0.663,1.0,2.325,1,ED77
44,1.035,1.0,2.325,1,ED77
45,0.725,0.0,-2.325,1,ED77
46,0.694,1.0,2.325,1,ED77
47,0.764,1.0,2.325,1,ED77
48,1.102,0.0,-2.325,1,ED77
49,1.351,0.0,-2.325,1,ED77
50,0.869,1.0,2.325,1,ED77
51,1.017,1.0,2.325,1,ED77
52,0.83,1.0,2.325,1,ED77
53,0.834,1.0,2.325,1,ED77
54,0.713,1.0,2.325,1,ED77
55,0.808,1.0,2.325,1,ED77
56,1.212,0.0,2.325,0,ED77
57,1.15,1.0,2.325,1,ED77
58,0.834,1.0,2.325,1,ED77
59,1.014,1.0,2.325,1,ED77
60,1.129,1.0,2.325,1,ED77
61,1.215,1.0,2.325,1,ED77
62,0.25,1.0,2.325,1,ED77
63,0.925,1.0,2.325,1,ED77
64,0.834,1.0,2.325,1,ED77
65,0.944,1.0,2.325,1,ED77
66,0.246,1.0,2.325,1,ED77
67,0.963,0.0,-2.325,1,ED77
68,0.907,1.0,2.325,1,ED77
69,2.796,0.0,2.325,0,ED77
70,1.3,1.0,2.325,1,ED77
71,1.052,1.0,2.325,1,ED77
72,0.842,1.0,2.325,1,ED77
73,1.488,0.0,-2.325,1,ED77
74,2.652,0.0,2.325,0,ED77
75,1.237,1.0,2.325,1,ED77
76,0.876,0.0,-2.325,1,ED77
77,0.842,1.0,2.325,1,ED77
78,0.957,0.0,-2.325,1,ED77
79,0.99,1.0,2.325,1,ED77
80,0.94,0.0,-2.325,1,ED77
81,0.866,1.0,2.325,1,ED77
82,0.956,1.0,2.325,1,ED77
83,0.931,1.0,2.325,1,ED77
84,0.786,0.0,-2.325,1,ED77
85,1.05,1.0,2.325,1,ED77
86,1.102,0.0,2.325,0,ED77
87,1.304,1.0,2.325,1,ED77
88,0.979,0.0,2.325,0,ED77
89,1.363,1.0,2.325,1,ED77
90,1.21,1.0,2.325,1,ED77
91,1.522,1.0,2.325,1,ED77
92,1.778,1.0,2.325,1,ED77
93,2.107,1.0,2.325,1,ED77
94,1.934,1.0,2.325,1,ED77
95,1.603,1.0,2.325,1,ED77
96,1.323,1.0,2.325,1,ED77
97,1.253,1.0,2.325,1,ED77
98,0.833,0.0,2.325,0,ED77
99,1.058,1.0,2.325,1,ED77
100,0.95,0.0,-2.325,1,ED77
1,1.322,1.0,1.54,1,ED77
2,0.964,1.0,1.54,1,ED77
3,0.805,1.0,1.54,1,ED77
4,0.921,1.0,1.54,1,ED77
5,0.874,1.0,1.54,1,ED77
6,0.755,1.0,1.54,1,ED77
7,1.023,1.0,1.54,1,ED77
8,0.864,1.0,1.54,1,ED77
9,0.801,1.0,1.54,1,ED77
10,0.808,1.0,1.54,1,ED77
11,0.954,1.0,1.54,1,ED77
12,0.838,1.0,1.54,1,ED77
13,0.903,1.0,1.54,1,ED77
14,0.983,0.0,1.54,0,ED77
15,1.609,1.0,1.54,1,ED77
16,2.704,0.0,1.54,0,ED77
17,2.444,0.0,1.54,0,ED77
18,2.527,0.0,1.54,0,ED77
19,1.04,0.0,-1.54,1,ED77
20,2.461,0.0,1.54,0,ED77
21,2.444,0.0,1.54,0,ED77
22,1.326,1.0,1.54,1,ED77
23,1.163,0.0,-1.54,1,ED77
24,2.374,0.0,1.54,0,ED77
25,1.341,1.0,1.54,1,ED77
26,0.892,0.0,-1.54,1,ED77
27,1.114,1.0,1.54,1,ED77
28,0.932,0.0,-1.54,1,ED77
29,1.343,0.0,1.54,0,ED77
30,2.126,1.0,1.54,1,ED77
31,1.821,1.0,1.54,1,ED77
32,3.167,0.0,1.54,0,ED77
33,3.054,0.0,1.54,0,ED77
34,1.432,1.0,1.54,1,ED77
35,1.193,0.0,-1.54,1,ED77
36,1.239,1.0,1.54,1,ED77
37,1.24,1.0,1.54,1,ED77
38,0.903,0.0,1.54,0,ED77
39,2.788,1.0,1.54,1,ED77
40,1.254,1.0,1.54,1,ED77
41,1.768,1.0,1.54,1,ED77
42,2.748,0.0,1.54,0,ED77
43,2.808,0.0,1.54,0,ED77
44,1.833,1.0,1.54,1,ED77
45,2.676,0.0,1.54,0,ED77
46,1.485,0.0,-1.54,1,ED77
47,1.596,0.0,-1.54,1,ED77
48,1.755,0.0,-1.54,1,ED77
49,1.497,1.0,1.54,1,ED77
50,2.433,1.0,1.54,1,ED77
51,1.071,1.0,1.54,1,ED77
52,2.119,0.0,1.54,0,ED77
53,1.352,1.0,1.54,1,ED77
54,2.294,0.0,1.54,0,ED77
55,1.126,1.0,1.54,1,ED77
56,2.181,0.0,1.54,0,ED77
57,0.911,1.0,1.54,1,ED77
58,0.989,0.0,1.54,0,ED77
59,1.064,1.0,1.54,1,ED77
60,1.155,1.0,1.54,1,ED77
61,1.282,1.0,1.54,1,ED77
62,1.138,0.0,-1.54,1,ED77
63,0.91,0.0,-1.54,1,ED77
64,1.6,1.0,1.54,1,ED77
65,1.496,1.0,1.54,1,ED77
66,1.76,1.0,1.54,1,ED77
67,2.262,1.0,1.54,1,ED77
68,2.008,1.0,1.54,1,ED77
69,2.592,1.0,1.54,1,ED77
70,1.96,1.0,1.54,1,ED77
71,1.885,1.0,1.54,1,ED77
72,2.489,0.0,-1.54,1,ED77
73,1.626,1.0,1.54,1,ED77
74,1.064,0.0,-1.54,1,ED77
75,0.809,1.0,1.54,1,ED77
76,1.241,1.0,-1.54,0,ED77
77,1.088,0.0,-1.54,1,ED77
78,1.362,1.0,1.54,1,ED77
79,2.352,1.0,1.54,1,ED77
80,2.042,1.0,1.54,1,ED77
81,1.987,1.0,1.54,1,ED77
82,1.888,1.0,-1.54,0,ED77
83,1.622,1.0,1.54,1,ED77
84,2.25,0.0,-1.54,1,ED77
85,1.653,0.0,-1.54,1,ED77
86,1.285,0.0,-1.54,1,ED77
87,2.709,1.0,1.54,1,ED77
88,2.84,1.0,1.54,1,ED77
89,1.474,0.0,-1.54,1,ED77
90,2.073,0.0,1.54,0,ED77
91,1.362,1.0,-1.54,0,ED77
92,2.409,0.0,1.54,0,ED77
93,2.216,0.0,1.54,0,ED77
94,2.866,1.0,1.54,1,ED77
95,1.257,0.0,1.54,0,ED77
96,0.96,0.0,1.54,0,ED77
97,1.716,1.0,1.54,1,ED77
98,1.128,1.0,1.54,1,ED77
99,2.338,0.0,1.54,0,ED77
100,1.953,1.0,1.54,1,ED77
1,3.719,0.0,-0.7587,1,ED77
2,1.242,0.0,-0.7587,1,ED77
3,2.386,0.0,0.7587,0,ED77
4,1.535,0.0,0.7587,0,ED77
5,1.859,0.0,0.7587,0,ED77
6,1.712,0.0,0.7587,0,ED77
7,2.052,0.0,0.7587,0,ED77
8,2.912,1.0,-0.7587,0,ED77
9,1.243,0.0,0.7587,0,ED77
10,1.195,0.0,-0.7587,1,ED77
11,0.846,0.0,-0.7587,1,ED77
12,2.177,1.0,0.7587,1,ED77
13,2.726,1.0,0.7587,1,ED77
14,3.265,0.0,0.7587,0,ED77
15,2.43,1.0,0.7587,1,ED77
16,2.256,0.0,0.7587,0,ED77
17,2.278,1.0,0.7587,1,ED77
18,1.465,0.0,-0.7587,1,ED77
19,2.111,0.0,0.7587,0,ED77
20,2.511,0.0,0.7587,0,ED77
21,1.445,0.0,0.7587,0,ED77
22,1.407,0.0,0.7587,0,ED77
23,2.171,0.0,0.7587,0,ED77
24,1.565,0.0,0.7587,0,ED77
25,2.669,1.0,0.7587,1,ED77
26,1.547,1.0,0.7587,1,ED77
27,2.278,1.0,0.7587,1,ED77
28,1.789,0.0,0.7587,0,ED77
29,2.646,1.0,0.7587,1,ED77
30,1.366,0.0,0.7587,0,ED77
31,1.892,0.0,0.7587,0,ED77
32,1.576,1.0,0.7587,1,ED77
33,1.287,0.0,0.7587,0,ED77
34,1.778,1.0,-0.7587,0,ED77
35,1.332,0.0,-0.7587,1,ED77
36,0.972,1.0,0.7587,1,ED77
37,1.188,0.0,0.7587,0,ED77
38,2.535,1.0,0.7587,1,ED77
39,1.639,0.0,-0.7587,1,ED77
40,1.288,0.0,0.7587,0,ED77
41,2.444,1.0,0.7587,1,ED77
42,1.071,0.0,-0.7587,1,ED77
43,0.99,0.0,-0.7587,1,ED77
44,0.975,0.0,0.7587,0,ED77
45,1.022,0.0,-0.7587,1,ED77
46,2.488,1.0,0.7587,1,ED77
47,1.052,0.0,-0.7587,1,ED77
48,2.914,1.0,0.7587,1,ED77
49,2.752,1.0,0.7587,1,ED77
50,1.435,1.0,0.7587,1,ED77
51,1.432,0.0,-0.7587,1,ED77
52,1.294,0.0,0.7587,0,ED77
53,1.131,1.0,0.7587,1,ED77
54,0.766,0.0,0.7587,0,ED77
55,0.8,0.0,-0.7587,1,ED77
56,0.934,1.0,0.7587,1,ED77
57,1.031,0.0,0.7587,0,ED77
58,1.272,0.0,0.7587,0,ED77
59,1.969,1.0,0.7587,1,ED77
60,1.882,1.0,0.7587,1,ED77
61,1.227,1.0,0.7587,1,ED77
62,2.663,1.0,0.7587,1,ED77
63,1.581,0.0,-0.7587,1,ED77
64,2.488,0.0,0.7587,0,ED77
65,2.477,0.0,0.7587,0,ED77
66,2.893,1.0,0.7587,1,ED77
67,1.703,0.0,0.7587,0,ED77
68,2.695,1.0,0.7587,1,ED77
69,2.481,1.0,0.7587,1,ED77
70,1.787,0.0,0.7587,0,ED77
71,1.245,1.0,0.7587,1,ED77
72,1.848,0.0,0.7587,0,ED77
73,1.287,1.0,0.7587,1,ED77
74,1.184,0.0,0.7587,0,ED77
75,1.513,1.0,0.7587,1,ED77
76,1.075,0.0,0.7587,0,ED77
77,2.16,0.0,0.7587,0,ED77
78,1.444,1.0,0.7587,1,ED77
79,1.143,1.0,0.7587,1,ED77
80,1.265,1.0,0.7587,1,ED77
81,0.923,1.0,0.7587,1,ED77
82,1.33,1.0,0.7587,1,ED77
83,1.161,1.0,0.7587,1,ED77
84,1.264,1.0,0.7587,1,ED77
85,1.771,1.0,0.7587,1,ED77
86,2.944,1.0,0.7587,1,ED77
87,2.322,0.0,0.7587,0,ED77
88,1.09,0.0,0.7587,0,ED77
89,1.475,1.0,0.7587,1,ED77
90,2.129,0.0,0.7587,0,ED77
91,1.215,1.0,0.7587,1,ED77
92,0.823,0.0,-0.7587,1,ED77
93,2.487,0.0,0.7587,0,ED77
94,2.818,1.0,0.7587,1,ED77
95,2.12,0.0,0.7587,0,ED77
96,1.598,0.0,-0.7587,1,ED77
97,1.034,0.0,-0.7587,1,ED77
98,1.224,0.0,-0.7587,1,ED77
99,1.215,0.0,0.7587,0,ED77
100,1.54,0.0,0.7587,0,ED77
1,1.957,1.0,0.7587,1,ED77
2,2.067,0.0,0.7587,0,ED77
3,1.195,0.0,-0.7587,1,ED77
4,1.082,0.0,-0.7587,1,ED77
5,1.471,0.0,-0.7587,1,ED77
6,1.203,0.0,0.7587,0,ED77
7,2.57,0.0,0.7587,0,ED77
8,2.872,0.0,0.7587,0,ED77
9,2.613,0.0,0.7587,0,ED77
10,2.021,0.0,-0.7587,1,ED77
11,2.216,0.0,-0.7587,1,ED77
12,2.681,0.0,0.7587,0,ED77
13,1.431,0.0,-0.7587,1,ED77
14,2.485,0.0,0.7587,0,ED77
15,1.121,0.0,-0.7587,1,ED77
16,1.63,0.0,0.7587,0,ED77
17,1.416,0.0,-0.7587,1,ED77
18,1.372,0.0,0.7587,0,ED77
19,2.869,1.0,0.7587,1,ED77
20,2.5,0.0,-0.7587,1,ED77
21,1.224,0.0,-0.7587,1,ED77
22,2.935,1.0,0.7587,1,ED77
23,2.517,1.0,-0.7587,0,ED77
24,3.02,0.0,-0.7587,1,ED77
25,1.17,1.0,0.7587,1,ED77
26,1.152,0.0,-0.7587,1,ED77
27,2.243,0.0,0.7587,0,ED77
28,2.669,0.0,0.7587,0,ED77
29,1.087,0.0,-0.7587,1,ED77
30,2.672,0.0,0.7587,0,ED77
31,1.736,0.0,-0.7587,1,ED77
32,2.786,0.0,0.7587,0,ED77
33,2.918,0.0,0.7587,0,ED77
34,2.357,0.0,0.7587,0,ED77
35,1.735,0.0,-0.7587,1,ED77
36,1.628,0.0,-0.7587,1,ED77
37,1.529,0.0,-0.7587,1,ED77
38,2.257,1.0,0.7587,1,ED77
39,2.582,0.0,0.7587,0,ED77
40,1.436,0.0,-0.7587,1,ED77
41,1.887,0.0,0.7587,0,ED77
42,1.367,0.0,-0.7587,1,ED77
43,1.041,0.0,-0.7587,1,ED77
44,1.715,0.0,0.7587,0,ED77
45,2.183,1.0,0.7587,1,ED77
46,1.276,0.0,-0.7587,1,ED77
47,2.084,0.0,-0.7587,1,ED77
48,2.144,1.0,0.7587,1,ED77
49,1.016,0.0,-0.7587,1,ED77
50,1.433,1.0,0.7587,1,ED77
51,1.798,1.0,0.7587,1,ED77
52,1.186,1.0,0.7587,1,ED77
53,1.355,1.0,-0.7587,0,ED77
54,1.13,1.0,0.7587,1,ED77
55,1.682,1.0,0.7587,1,ED77
56,2.108,0.0,-0.7587,1,ED77
57,1.154,0.0,-0.7587,1,ED77
58,1.653,0.0,-0.7587,1,ED77
59,1.714,0.0,-0.7587,1,ED77
60,1.235,0.0,-0.7587,1,ED77
61,2.383,0.0,0.7587,0,ED77
62,2.967,0.0,0.7587,0,ED77
63,2.464,0.0,0.7587,0,ED77
64,1.472,0.0,-0.7587,1,ED77
65,1.28,0.0,-0.7587,1,ED77
66,1.796,0.0,-0.7587,1,ED77
67,1.377,0.0,-0.7587,1,ED77
68,1.764,0.0,-0.7587,1,ED77
69,1.494,0.0,-0.7587,1,ED77
70,2.919,0.0,0.7587,0,ED77
71,1.318,0.0,-0.7587,1,ED77
72,1.349,0.0,-0.7587,1,ED77
73,1.997,0.0,-0.7587,1,ED77
74,1.067,0.0,-0.7587,1,ED77
75,1.257,0.0,0.7587,0,ED77
76,1.148,0.0,-0.7587,1,ED77
77,1.158,0.0,0.7587,0,ED77
78,1.534,0.0,0.7587,0,ED77
79,1.479,0.0,-0.7587,1,ED77
80,2.617,1.0,0.7587,1,ED77
81,2.951,0.0,0.7587,0,ED77
82,1.928,0.0,-0.7587,1,ED77
83,1.123,0.0,-0.7587,1,ED77
84,0.95,0.0,-0.7587,1,ED77
85,0.935,0.0,-0.7587,1,ED77
86,1.032,0.0,0.7587,0,ED77
87,1.573,0.0,0.7587,0,ED77
88,2.477,0.0,0.7587,0,ED77
89,1.541,0.0,0.7587,0,ED77
90,2.522,0.0,0.7587,0,ED77
91,2.891,0.0,0.7587,0,ED77
92,2.533,0.0,0.7587,0,ED77
93,1.682,0.0,-0.7587,1,ED77
94,1.034,0.0,0.7587,0,ED77
95,1.526,0.0,-0.7587,1,ED77
96,1.577,0.0,-0.7587,1,ED77
97,1.682,0.0,0.7587,0,ED77
98,2.691,0.0,0.7587,0,ED77
99,3.041,0.0,0.7587,0,ED77
100,2.447,0.0,-0.7587,1,ED77
1,2.764,0.0,0.7587,0,ED77
2,2.671,1.0,0.7587,1,ED77
3,1.936,0.0,-0.7587,1,ED77
4,2.56,1.0,-0.7587,0,ED77
5,2.043,1.0,0.7587,1,ED77
6,2.175,0.0,-0.7587,1,ED77
7,2.394,0.0,0.7587,0,ED77
8,1.88,1.0,0.7587,1,ED77
9,2.072,0.0,0.7587,0,ED77
10,1.446,0.0,-0.7587,1,ED77
11,2.577,0.0,0.7587,0,ED77
12,2.322,0.0,-0.7587,1,ED77
13,2.635,0.0,0.7587,0,ED77
14,1.063,0.0,-0.7587,1,ED77
15,2.76,0.0,0.7587,0,ED77
16,2.513,0.0,0.7587,0,ED77
17,1.732,1.0,0.7587,1,ED77
18,1.346,0.0,-0.7587,1,ED77
19,1.188,0.0,-0.7587,1,ED77
20,2.053,0.0,0.7587,0,ED77
21,2.483,0.0,0.7587,0,ED77
22,1.848,0.0,-0.7587,1,ED77
23,1.814,0.0,-0.7587,1,ED77
24,1.877,0.0,-0.7587,1,ED77
25,1.383,0.0,-0.7587,1,ED77
26,2.378,0.0,0.7587,0,ED77
27,1.374,0.0,-0.7587,1,ED77
28,2.346,0.0,0.7587,0,ED77
29,2.625,0.0,0.7587,0,ED77
30,3.148,0.0,0.7587,0,ED77
31,2.104,0.0,-0.7587,1,ED77
32,2.292,1.0,0.7587,1,ED77
33,1.727,0.0,0.7587,0,ED77
34,1.975,0.0,-0.7587,1,ED77
35,2.156,0.0,0.7587,0,ED77
36,3.518,1.0,0.7587,1,ED77
37,1.214,0.0,-0.7587,1,ED77
38,1.348,1.0,0.7587,1,ED77
39,1.169,0.0,-0.7587,1,ED77
40,1.495,1.0,0.7587,1,ED77
41,2.121,0.0,0.7587,0,ED77
42,1.854,1.0,-0.7587,0,ED77
43,1.271,0.0,-0.7587,1,ED77
44,1.733,0.0,0.7587,0,ED77
45,2.312,0.0,0.7587,0,ED77
46,2.181,0.0,0.7587,0,ED77
47,1.751,0.0,-0.7587,1,ED77
48,2.569,1.0,0.7587,1,ED77
49,2.323,1.0,0.7587,1,ED77
50,1.765,0.0,-0.7587,1,ED77
51,2.018,0.0,-0.7587,1,ED77
52,1.518,0.0,-0.7587,1,ED77
53,1.503,0.0,-0.7587,1,ED77
54,2.076,0.0,0.7587,0,ED77
55,1.844,0.0,-0.7587,1,ED77
56,2.695,1.0,0.7587,1,ED77
57,2.759,0.0,-0.7587,1,ED77
58,1.938,0.0,-0.7587,1,ED77
59,2.054,0.0,0.7587,0,ED77
60,1.669,0.0,-0.7587,1,ED77
61,2.268,1.0,0.7587,1,ED77
62,2.352,0.0,-0.7587,1,ED77
63,1.599,0.0,-0.7587,1,ED77
64,2.429,0.0,-0.7587,1,ED77
65,1.562,0.0,-0.7587,1,ED77
66,1.563,0.0,-0.7587,1,ED77
67,3.159,0.0,0.7587,0,ED77
68,1.595,0.0,-0.7587,1,ED77
69,1.197,0.0,-0.7587,1,ED77
70,1.09,0.0,-0.7587,1,ED77
71,3.002,1.0,0.7587,1,ED77
72,2.029,0.0,-0.7587,1,ED77
73,2.657,1.0,0.7587,1,ED77
74,1.825,0.0,-0.7587,1,ED77
75,1.819,1.0,0.7587,1,ED77
76,2.394,0.0,-0.7587,1,ED77
77,2.718,0.0,0.7587,0,ED77
78,1.207,1.0,0.7587,1,ED77
79,1.453,0.0,-0.7587,1,ED77
80,1.715,0.0,-0.7587,1,ED77
81,2.505,0.0,-0.7587,1,ED77
82,1.9,1.0,0.7587,1,ED77
83,1.503,0.0,-0.7587,1,ED77
84,2.165,0.0,0.7587,0,ED77
85,1.832,0.0,-0.7587,1,ED77
86,3.372,0.0,0.7587,0,ED77
87,2.605,0.0,-0.7587,1,ED77
88,3.929,1.0,-0.7587,0,ED77
89,2.584,0.0,0.7587,0,ED77
90,1.068,0.0,-0.7587,1,ED77
91,2.761,0.0,0.7587,0,ED77
92,1.355,0.0,-0.7587,1,ED77
93,2.414,0.0,0.7587,0,ED77
94,1.493,0.0,-0.7587,1,ED77
95,2.914,0.0,0.7587,0,ED77
96,2.559,0.0,-0.7587,1,ED77
97,1.642,1.0,0.7587,1,ED77
98,2.096,0.0,0.7587,0,ED77
99,1.444,1.0,0.7587,1,ED77
100,1.085,1.0,0.7587,1,ED77
1,1.161,1.0,-0.3308,0,RE91
2,1.415,1.0,0.3308,1,RE91
3,2.337,1.0,0.3308,1,RE91
4,2.416,1.0,0.3308,1,RE91
5,2.199,1.0,0.3308,1,RE91
6,2.369,1.0,0.3308,1,RE91
7,2.407,1.0,0.3308,1,RE91
8,3.203,1.0,-0.3308,0,RE91
9,2.337,0.0,-0.3308,1,RE91
10,2.487,1.0,0.3308,1,RE91
11,2.522,1.0,-0.3308,0,RE91
12,2.229,0.0,0.3308,0,RE91
13,2.936,1.0,0.3308,1,RE91
14,2.457,1.0,0.3308,1,RE91
15,2.415,1.0,0.3308,1,RE91
16,2.5,0.0,-0.3308,1,RE91
17,1.917,1.0,0.3308,1,RE91
18,2.211,1.0,0.3308,1,RE91
19,1.576,1.0,0.3308,1,RE91
20,2.33,0.0,0.3308,0,RE91
21,2.256,1.0,-0.3308,0,RE91
22,2.442,1.0,0.3308,1,RE91
23,3.146,1.0,0.3308,1,RE91
24,2.273,1.0,0.3308,1,RE91
25,2.972,1.0,0.3308,1,RE91
26,2.621,1.0,0.3308,1,RE91
27,2.831,1.0,0.3308,1,RE91
28,2.731,0.0,0.3308,0,RE91
29,2.673,1.0,0.3308,1,RE91
30,2.654,1.0,-0.3308,0,RE91
31,2.974,1.0,0.3308,1,RE91
32,2.463,0.0,0.3308,0,RE91
33,2.98,1.0,0.3308,1,RE91
34,3.02,1.0,0.3308,1,RE91
35,2.767,0.0,0.3308,0,RE91
36,2.762,1.0,0.3308,1,RE91
37,3.55,0.0,-0.3308,1,RE91
38,2.943,1.0,0.3308,1,RE91
39,3.283,0.0,0.3308,0,RE91
40,3.065,0.0,0.3308,0,RE91
41,2.665,1.0,-0.3308,0,RE91
42,2.258,1.0,0.3308,1,RE91
43,1.67,1.0,0.3308,1,RE91
44,1.639,1.0,0.3308,1,RE91
45,2.569,1.0,0.3308,1,RE91
46,2.206,1.0,0.3308,1,RE91
47,2.844,1.0,0.3308,1,RE91
48,3.156,0.0,0.3308,0,RE91
49,2.46,1.0,0.3308,1,RE91
50,1.685,1.0,0.3308,1,RE91
51,2.217,1.0,-0.3308,0,RE91
52,1.993,0.0,0.3308,0,RE91
53,1.877,0.0,-0.3308,1,RE91
54,1.571,1.0,0.3308,1,RE91
55,1.328,1.0,0.3308,1,RE91
56,1.54,1.0,0.3308,1,RE91
57,1.426,1.0,0.3308,1,RE91
58,2.011,1.0,-0.3308,0,RE91
59,1.655,1.0,0.3308,1,RE91
60,2.069,1.0,0.3308,1,RE91
61,3.341,1.0,-0.3308,0,RE91
62,2.167,1.0,0.3308,1,RE91
63,2.701,0.0,-0.3308,1,RE91
64,1.578,1.0,0.3308,1,RE91
65,2.171,1.0,0.3308,1,RE91
66,1.556,0.0,0.3308,0,RE91
67,1.977,1.0,0.3308,1,RE91
68,1.948,1.0,-0.3308,0,RE91
69,2.158,1.0,0.3308,1,RE91
70,2.606,0.0,0.3308,0,RE91
71,2.487,0.0,0.3308,0,RE91
72,3.137,1.0,0.3308,1,RE91
73,1.488,0.0,0.3308,0,RE91
74,1.845,1.0,0.3308,1,RE91
75,1.847,1.0,-0.3308,0,RE91
76,1.839,0.0,0.3308,0,RE91
77,1.594,1.0,-0.3308,0,RE91
78,1.408,1.0,0.3308,1,RE91
79,2.052,1.0,0.3308,1,RE91
80,2.543,0.0,0.3308,0,RE91
81,2.411,0.0,-0.3308,1,RE91
82,2.574,1.0,0.3308,1,RE91
83,2.744,1.0,0.3308,1,RE91
84,2.395,1.0,0.3308,1,RE91
85,2.459,0.0,0.3308,0,RE91
86,1.831,1.0,-0.3308,0,RE91
87,2.805,1.0,0.3308,1,RE91
88,3.306,1.0,0.3308,1,RE91
89,3.424,0.0,0.3308,0,RE91
90,1.826,0.0,-0.3308,1,RE91
91,2.107,1.0,0.3308,1,RE91
92,2.25,1.0,0.3308,1,RE91
93,1.855,0.0,0.3308,0,RE91
94,1.72,1.0,0.3308,1,RE91
95,2.501,1.0,0.3308,1,RE91
96,2.078,0.0,0.3308,0,RE91
97,1.594,1.0,0.3308,1,RE91
98,2.508,0.0,0.3308,0,RE91
99,1.785,0.0,0.3308,0,RE91
100,1.755,0.0,0.3308,0,RE91
1,1.91,1.0,-0.3308,0,RE91
2,1.55,1.0,-0.3308,0,RE91
3,1.33,1.0,0.3308,1,RE91
4,1.58,1.0,0.3308,1,RE91
5,1.436,0.0,-0.3308,1,RE91
6,1.463,1.0,0.3308,1,RE91
7,1.404,1.0,0.3308,1,RE91
8,1.255,1.0,0.3308,1,RE91
9,1.067,1.0,0.3308,1,RE91
10,1.162,1.0,0.3308,1,RE91
11,1.387,1.0,0.3308,1,RE91
12,1.222,1.0,0.3308,1,RE91
13,1.501,1.0,0.3308,1,RE91
14,2.271,1.0,-0.3308,0,RE91
15,2.112,0.0,0.3308,0,RE91
16,2.971,0.0,0.3308,0,RE91
17,1.966,1.0,0.3308,1,RE91
18,2.667,1.0,-0.3308,0,RE91
19,2.311,0.0,-0.3308,1,RE91
20,2.789,1.0,0.3308,1,RE91
21,1.816,1.0,0.3308,1,RE91
22,1.466,1.0,0.3308,1,RE91
23,2.01,1.0,0.3308,1,RE91
24,1.966,1.0,0.3308,1,RE91
25,1.984,0.0,0.3308,0,RE91
26,1.715,1.0,0.3308,1,RE91
27,1.302,1.0,-0.3308,0,RE91
28,1.331,1.0,0.3308,1,RE91
29,1.536,1.0,0.3308,1,RE91
30,1.577,1.0,0.3308,1,RE91
31,2.41,0.0,0.3308,0,RE91
32,1.508,1.0,-0.3308,0,RE91
33,1.593,1.0,0.3308,1,RE91
34,1.254,0.0,0.3308,0,RE91
35,1.537,1.0,0.3308,1,RE91
36,1.662,1.0,0.3308,1,RE91
37,2.036,1.0,0.3308,1,RE91
38,2.582,0.0,0.3308,0,RE91
39,2.068,1.0,0.3308,1,RE91
40,1.663,1.0,0.3308,1,RE91
41,1.779,1.0,0.3308,1,RE91
42,2.267,1.0,0.3308,1,RE91
43,1.792,1.0,-0.3308,0,RE91
44,1.799,1.0,0.3308,1,RE91
45,1.796,1.0,0.3308,1,RE91
46,2.09,1.0,0.3308,1,RE91
47,2.298,1.0,0.3308,1,RE91
48,1.95,1.0,0.3308,1,RE91
49,1.645,1.0,0.3308,1,RE91
50,2.133,0.0,0.3308,0,RE91
51,2.985,0.0,0.3308,0,RE91
52,1.908,1.0,0.3308,1,RE91
53,1.795,0.0,0.3308,0,RE91
54,2.079,0.0,0.3308,0,RE91
55,1.705,1.0,0.3308,1,RE91
56,2.012,1.0,0.3308,1,RE91
57,2.263,0.0,-0.3308,1,RE91
58,2.354,1.0,-0.3308,0,RE91
59,2.586,1.0,-0.3308,0,RE91
60,2.731,1.0,0.3308,1,RE91
61,2.068,0.0,0.3308,0,RE91
62,1.242,1.0,0.3308,1,RE91
63,1.027,1.0,-0.3308,0,RE91
64,1.427,1.0,0.3308,1,RE91
65,1.673,1.0,0.3308,1,RE91
66,1.804,1.0,0.3308,1,RE91
67,2.39,0.0,0.3308,0,RE91
68,2.111,1.0,0.3308,1,RE91
69,1.594,1.0,-0.3308,0,RE91
70,1.331,0.0,0.3308,0,RE91
71,1.092,1.0,0.3308,1,RE91
72,1.718,0.0,0.3308,0,RE91
73,1.63,1.0,0.3308,1,RE91
74,1.206,0.0,0.3308,0,RE91
75,0.655,1.0,0.3308,1,RE91
76,1.658,0.0,-0.3308,1,RE91
77,1.351,1.0,0.3308,1,RE91
78,1.421,0.0,0.3308,0,RE91
79,1.315,1.0,0.3308,1,RE91
80,1.587,1.0,-0.3308,0,RE91
81,2.404,1.0,0.3308,1,RE91
82,2.375,1.0,0.3308,1,RE91
83,2.521,1.0,0.3308,1,RE91
84,2.314,1.0,0.3308,1,RE91
85,1.785,1.0,0.3308,1,RE91
86,1.235,1.0,-0.3308,0,RE91
87,1.532,1.0,0.3308,1,RE91
88,3.049,1.0,0.3308,1,RE91
89,2.647,0.0,-0.3308,1,RE91
90,1.817,1.0,0.3308,1,RE91
91,2.132,1.0,0.3308,1,RE91
92,1.887,1.0,0.3308,1,RE91
93,1.426,0.0,0.3308,0,RE91
94,1.158,1.0,0.3308,1,RE91
95,1.58,0.0,0.3308,0,RE91
96,0.683,1.0,-0.3308,0,RE91
97,1.681,1.0,0.3308,1,RE91
98,1.121,1.0,0.3308,1,RE91
99,1.974,1.0,-0.3308,0,RE91
100,2.964,0.0,0.3308,0,RE91
1,2.021,1.0,0.3308,1,RE91
2,2.474,1.0,0.3308,1,RE91
3,2.284,0.0,-0.3308,1,RE91
4,2.197,1.0,-0.3308,0,RE91
5,1.419,1.0,0.3308,1,RE91
6,1.193,1.0,0.3308,1,RE91
7,1.542,0.0,0.3308,0,RE91
8,0.984,1.0,-0.3308,0,RE91
9,1.551,0.0,-0.3308,1,RE91
10,1.061,1.0,0.3308,1,RE91
11,1.179,0.0,0.3308,0,RE91
12,1.626,0.0,0.3308,0,RE91
13,1.728,0.0,-0.3308,1,RE91
14,1.338,1.0,0.3308,1,RE91
15,1.268,1.0,0.3308,1,RE91
16,1.636,1.0,-0.3308,0,RE91
17,1.601,1.0,0.3308,1,RE91
18,1.528,1.0,-0.3308,0,RE91
19,1.192,0.0,0.3308,0,RE91
20,1.112,1.0,0.3308,1,RE91
21,1.167,1.0,0.3308,1,RE91
22,1.731,1.0,0.3308,1,RE91
23,2.042,1.0,0.3308,1,RE91
24,2.369,1.0,0.3308,1,RE91
25,1.813,1.0,0.3308,1,RE91
26,1.479,1.0,0.3308,1,RE91
27,1.347,0.0,0.3308,0,RE91
28,1.255,1.0,0.3308,1,RE91
29,0.959,0.0,-0.3308,1,RE91
30,1.487,1.0,0.3308,1,RE91
31,2.313,0.0,0.3308,0,RE91
32,2.357,0.0,0.3308,0,RE91
33,3.177,0.0,-0.3308,1,RE91
34,2.692,1.0,0.3308,1,RE91
35,1.975,1.0,-0.3308,0,RE91
36,1.875,0.0,-0.3308,1,RE91
37,1.941,1.0,0.3308,1,RE91
38,1.964,1.0,0.3308,1,RE91
39,2.353,1.0,0.3308,1,RE91
40,2.181,0.0,0.3308,0,RE91
41,1.445,1.0,-0.3308,0,RE91
42,1.704,1.0,0.3308,1,RE91
43,2.262,1.0,0.3308,1,RE91
44,1.958,1.0,0.3308,1,RE91
45,1.983,0.0,-0.3308,1,RE91
46,1.471,1.0,0.3308,1,RE91
47,1.768,1.0,0.3308,1,RE91
48,1.928,0.0,0.3308,0,RE91
49,2.428,0.0,0.3308,0,RE91
50,2.198,1.0,0.3308,1,RE91
51,1.871,0.0,0.3308,0,RE91
52,2.207,0.0,0.3308,0,RE91
53,2.434,0.0,0.3308,0,RE91
54,2.361,1.0,0.3308,1,RE91
55,2.06,0.0,0.3308,0,RE91
56,2.361,0.0,0.3308,0,RE91
57,1.434,1.0,0.3308,1,RE91
58,1.753,1.0,-0.3308,0,RE91
59,2.241,1.0,0.3308,1,RE91
60,1.921,1.0,0.3308,1,RE91
61,2.449,0.0,0.3308,0,RE91
62,2.275,1.0,0.3308,1,RE91
63,2.681,1.0,0.3308,1,RE91
64,1.943,1.0,0.3308,1,RE91
65,2.173,0.0,0.3308,0,RE91
66,1.975,1.0,0.3308,1,RE91
67,2.467,1.0,0.3308,1,RE91
68,2.833,0.0,0.3308,0,RE91
69,2.153,1.0,0.3308,1,RE91
70,2.032,1.0,0.3308,1,RE91
71,1.262,0.0,0.3308,0,RE91
72,1.551,1.0,0.3308,1,RE91
73,1.577,1.0,0.3308,1,RE91
74,2.048,1.0,0.3308,1,RE91
75,2.915,1.0,0.3308,1,RE91
76,1.978,1.0,0.3308,1,RE91
77,2.631,0.0,0.3308,0,RE91
78,1.611,1.0,0.3308,1,RE91
79,2.358,1.0,0.3308,1,RE91
80,2.501,0.0,0.3308,0,RE91
81,2.59,0.0,0.3308,0,RE91
82,2.464,0.0,-0.3308,1,RE91
83,2.324,0.0,0.3308,0,RE91
84,1.619,1.0,0.3308,1,RE91
85,1.022,0.0,-0.3308,1,RE91
86,1.947,0.0,0.3308,0,RE91
87,1.31,1.0,0.3308,1,RE91
88,1.554,0.0,-0.3308,1,RE91
89,1.249,0.0,-0.3308,1,RE91
90,1.235,1.0,0.3308,1,RE91
91,1.42,1.0,0.3308,1,RE91
92,1.53,0.0,0.3308,0,RE91
93,1.693,0.0,0.3308,0,RE91
94,1.663,0.0,0.3308,0,RE91
95,2.194,0.0,-0.3308,1,RE91
96,1.231,0.0,0.3308,0,RE91
97,1.352,0.0,0.3308,0,RE91
98,2.376,0.0,-0.3308,1,RE91
99,2.818,1.0,0.3308,1,RE91
100,1.781,1.0,0.3308,1,RE91
1,2.572,1.0,-0.3308,0,RE91
2,1.222,1.0,0.3308,1,RE91
3,1.175,1.0,0.3308,1,RE91
4,1.007,1.0,0.3308,1,RE91
5,1.28,1.0,-0.3308,0,RE91
6,1.337,0.0,-0.3308,1,RE91
7,1.278,0.0,0.3308,0,RE91
8,0.88,0.0,-0.3308,1,RE91
9,1.148,1.0,-0.3308,0,RE91
10,1.529,0.0,-0.3308,1,RE91
11,1.356,1.0,0.3308,1,RE91
12,1.044,1.0,0.3308,1,RE91
13,1.184,0.0,0.3308,0,RE91
14,1.528,0.0,-0.3308,1,RE91
15,1.636,0.0,-0.3308,1,RE91
16,1.321,1.0,0.3308,1,RE91
17,1.928,0.0,-0.3308,1,RE91
18,1.397,1.0,-0.3308,0,RE91
19,1.548,1.0,-0.3308,0,RE91
20,1.691,1.0,0.3308,1,RE91
21,1.424,0.0,-0.3308,1,RE91
22,1.882,1.0,0.3308,1,RE91
23,1.997,1.0,0.3308,1,RE91
24,1.386,1.0,0.3308,1,RE91
25,1.695,1.0,0.3308,1,RE91
26,1.567,1.0,0.3308,1,RE91
27,1.922,1.0,-0.3308,0,RE91
28,2.122,1.0,-0.3308,0,RE91
29,2.817,1.0,0.3308,1,RE91
30,1.528,1.0,0.3308,1,RE91
31,1.917,1.0,-0.3308,0,RE91
32,1.507,1.0,0.3308,1,RE91
33,1.74,1.0,0.3308,1,RE91
34,2.554,0.0,0.3308,0,RE91
35,1.274,1.0,0.3308,1,RE91
36,1.362,1.0,-0.3308,0,RE91
37,1.56,0.0,-0.3308,1,RE91
38,1.255,1.0,-0.3308,0,RE91
39,1.528,1.0,-0.3308,0,RE91
40,1.174,1.0,0.3308,1,RE91
41,1.266,1.0,-0.3308,0,RE91
42,1.109,1.0,0.3308,1,RE91
43,1.632,1.0,0.3308,1,RE91
44,1.335,1.0,-0.3308,0,RE91
45,1.863,1.0,0.3308,1,RE91
46,2.351,0.0,0.3308,0,RE91
47,2.067,0.0,-0.3308,1,RE91
48,2.251,1.0,-0.3308,0,RE91
49,2.696,1.0,-0.3308,0,RE91
50,2.24,1.0,0.3308,1,RE91
51,1.57,1.0,-0.3308,0,RE91
52,1.311,0.0,0.3308,0,RE91
53,1.29,1.0,0.3308,1,RE91
54,2.174,1.0,0.3308,1,RE91
55,2.114,1.0,0.3308,1,RE91
56,2.323,0.0,0.3308,0,RE91
57,2.044,1.0,0.3308,1,RE91
58,2.034,0.0,-0.3308,1,RE91
59,2.661,1.0,-0.3308,0,RE91
60,2.578,1.0,-0.3308,0,RE91
61,2.631,1.0,0.3308,1,RE91
62,2.811,1.0,0.3308,1,RE91
63,2.811,1.0,-0.3308,0,RE91
64,3.593,0.0,-0.3308,1,RE91
65,2.103,1.0,-0.3308,0,RE91
66,2.545,1.0,0.3308,1,RE91
67,1.838,0.0,-0.3308,1,RE91
68,2.125,0.0,-0.3308,1,RE91
69,3.064,0.0,0.3308,0,RE91
70,1.968,0.0,-0.3308,1,RE91
71,2.096,1.0,0.3308,1,RE91
72,1.803,1.0,-0.3308,0,RE91
73,1.382,1.0,0.3308,1,RE91
74,1.373,1.0,-0.3308,0,RE91
75,1.44,0.0,-0.3308,1,RE91
76,1.306,1.0,-0.3308,0,RE91
77,1.294,1.0,-0.3308,0,RE91
78,1.434,0.0,0.3308,0,RE91
79,1.364,1.0,-0.3308,0,RE91
80,1.42,1.0,-0.3308,0,RE91
81,2.095,1.0,0.3308,1,RE91
82,1.27,1.0,0.3308,1,RE91
83,2.37,1.0,-0.3308,0,RE91
84,2.49,0.0,-0.3308,1,RE91
85,2.039,0.0,0.3308,0,RE91
86,2.509,0.0,-0.3308,1,RE91
87,2.645,1.0,0.3308,1,RE91
88,2.197,1.0,0.3308,1,RE91
89,1.869,1.0,0.3308,1,RE91
90,2.084,0.0,0.3308,0,RE91
91,1.384,1.0,-0.3308,0,RE91
92,2.123,1.0,0.3308,1,RE91
93,2.644,1.0,-0.3308,0,RE91
94,2.544,0.0,-0.3308,1,RE91
95,2.583,1.0,0.3308,1,RE91
96,2.618,0.0,0.3308,0,RE91
97,1.844,1.0,-0.3308,0,RE91
98,2.373,0.0,-0.3308,1,RE91
99,2.575,0.0,0.3308,0,RE91
100,2.338,0.0,-0.3308,1,RE91
1,1.467,1.0,0.3308,1,RE91
2,1.217,1.0,-0.3308,0,RE91
3,1.324,0.0,-0.3308,1,RE91
4,1.276,1.0,0.3308,1,RE91
5,1.49,1.0,0.3308,1,RE91
6,2.244,1.0,0.3308,1,RE91
7,1.556,0.0,-0.3308,1,RE91
8,1.898,0.0,-0.3308,1,RE91
9,1.206,1.0,-0.3308,0,RE91
10,1.229,1.0,0.3308,1,RE91
11,1.239,0.0,-0.3308,1,RE91
12,0.941,1.0,0.3308,1,RE91
13,0.841,0.0,-0.3308,1,RE91
14,1.462,0.0,-0.3308,1,RE91
15,1.989,0.0,-0.3308,1,RE91
16,1.51,1.0,0.3308,1,RE91
17,1.848,0.0,-0.3308,1,RE91
18,2.002,0.0,-0.3308,1,RE91
19,2.027,1.0,0.3308,1,RE91
20,2.535,1.0,0.3308,1,RE91
21,2.843,0.0,0.3308,0,RE91
22,1.604,0.0,-0.3308,1,RE91
23,1.562,1.0,0.3308,1,RE91
24,1.871,0.0,-0.3308,1,RE91
25,3.386,1.0,0.3308,1,RE91
26,1.772,1.0,0.3308,1,RE91
27,2.711,1.0,0.3308,1,RE91
28,1.689,0.0,0.3308,0,RE91
29,1.748,0.0,-0.3308,1,RE91
30,1.841,1.0,0.3308,1,RE91
31,2.155,0.0,-0.3308,1,RE91
32,2.226,1.0,0.3308,1,RE91
33,1.72,0.0,-0.3308,1,RE91
34,1.87,1.0,0.3308,1,RE91
35,2.994,0.0,-0.3308,1,RE91
36,2.35,0.0,0.3308,0,RE91
37,2.592,0.0,0.3308,0,RE91
38,2.228,1.0,0.3308,1,RE91
39,2.312,0.0,0.3308,0,RE91
40,2.274,0.0,-0.3308,1,RE91
41,1.992,0.0,-0.3308,1,RE91
42,1.767,0.0,0.3308,0,RE91
43,1.686,1.0,0.3308,1,RE91
44,1.532,1.0,0.3308,1,RE91
45,1.732,0.0,0.3308,0,RE91
46,2.159,0.0,-0.3308,1,RE91
47,2.485,0.0,0.3308,0,RE91
48,2.969,0.0,-0.3308,1,RE91
49,2.021,0.0,-0.3308,1,RE91
50,1.893,0.0,0.3308,0,RE91
51,1.79,1.0,0.3308,1,RE91
52,2.158,0.0,0.3308,0,RE91
53,2.395,1.0,0.3308,1,RE91
54,2.597,1.0,-0.3308,0,RE91
55,2.064,1.0,-0.3308,0,RE91
56,2.559,1.0,-0.3308,0,RE91
57,2.159,0.0,-0.3308,1,RE91
58,1.531,1.0,0.3308,1,RE91
59,2.199,1.0,-0.3308,0,RE91
60,2.36,1.0,0.3308,1,RE91
61,2.539,0.0,0.3308,0,RE91
62,1.716,0.0,-0.3308,1,RE91
63,2.353,1.0,0.3308,1,RE91
64,2.31,1.0,-0.3308,0,RE91
65,2.644,0.0,0.3308,0,RE91
66,2.264,1.0,0.3308,1,RE91
67,2.294,1.0,0.3308,1,RE91
68,2.277,1.0,-0.3308,0,RE91
69,2.238,0.0,0.3308,0,RE91
70,2.202,1.0,-0.3308,0,RE91
71,1.547,1.0,0.3308,1,RE91
72,1.415,1.0,-0.3308,0,RE91
73,1.776,1.0,0.3308,1,RE91
74,1.999,0.0,-0.3308,1,RE91
75,2.298,0.0,0.3308,0,RE91
76,2.345,0.0,-0.3308,1,RE91
77,2.848,0.0,-0.3308,1,RE91
78,1.293,0.0,-0.3308,1,RE91
79,1.531,0.0,0.3308,0,RE91
80,3.213,0.0,-0.3308,1,RE91
81,2.465,1.0,-0.3308,0,RE91
82,1.335,1.0,-0.3308,0,RE91
83,1.193,1.0,0.3308,1,RE91
84,1.455,1.0,0.3308,1,RE91
85,0.469,1.0,-0.3308,0,RE91
86,1.414,1.0,-0.3308,0,RE91
87,2.184,1.0,-0.3308,0,RE91
88,2.33,0.0,0.3308,0,RE91
89,1.39,0.0,-0.3308,1,RE91
90,1.248,1.0,0.3308,1,RE91
91,1.477,1.0,0.3308,1,RE91
92,1.788,0.0,-0.3308,1,RE91
93,1.574,1.0,0.3308,1,RE91
94,1.499,1.0,-0.3308,0,RE91
95,1.81,0.0,-0.3308,1,RE91
96,1.696,0.0,-0.3308,1,RE91
97,1.498,1.0,0.3308,1,RE91
98,1.515,1.0,-0.3308,0,RE91
99,2.213,1.0,-0.3308,0,RE91
100,2.027,1.0,-0.3308,0,RE91
1,1.321,0.0,0.5129,0,DS88
2,1.464,1.0,0.5129,1,DS88
3,1.971,0.0,0.5129,0,DS88
4,1.434,1.0,0.5129,1,DS88
5,1.623,1.0,0.5129,1,DS88
6,2.014,0.0,0.5129,0,DS88
7,1.546,0.0,0.5129,0,DS88
8,1.64,1.0,0.5129,1,DS88
9,2.346,0.0,0.5129,0,DS88
10,1.979,1.0,0.5129,1,DS88
11,2.66,1.0,0.5129,1,DS88
12,2.286,1.0,0.5129,1,DS88
13,2.041,1.0,0.5129,1,DS88
14,1.936,1.0,-0.5129,0,DS88
15,1.56,0.0,-0.5129,1,DS88
16,2.197,1.0,-0.5129,0,DS88
17,2.443,0.0,0.5129,0,DS88
18,1.383,1.0,0.5129,1,DS88
19,2.092,0.0,0.5129,0,DS88
20,1.659,1.0,0.5129,1,DS88
21,1.472,0.0,-0.5129,1,DS88
22,1.172,1.0,0.5129,1,DS88
23,1.576,1.0,-0.5129,0,DS88
24,1.371,1.0,0.5129,1,DS88
25,1.232,0.0,-0.5129,1,DS88
26,1.045,1.0,0.5129,1,DS88
27,1.172,1.0,0.5129,1,DS88
28,1.064,0.0,-0.5129,1,DS88
29,0.909,1.0,0.5129,1,DS88
30,1.391,1.0,0.5129,1,DS88
31,1.214,0.0,0.5129,0,DS88
32,2.011,1.0,0.5129,1,DS88
33,1.763,1.0,0.5129,1,DS88
34,1.499,1.0,0.5129,1,DS88
35,1.998,1.0,0.5129,1,DS88
36,2.134,1.0,0.5129,1,DS88
37,1.784,0.0,0.5129,0,DS88
38,2.037,0.0,0.5129,0,DS88
39,1.71,1.0,0.5129,1,DS88
40,1.661,0.0,-0.5129,1,DS88
41,1.46,1.0,0.5129,1,DS88
42,1.096,1.0,0.5129,1,DS88
43,1.838,0.0,0.5129,0,DS88
44,1.509,1.0,0.5129,1,DS88
45,1.803,0.0,0.5129,0,DS88
46,1.889,1.0,-0.5129,0,DS88
47,2.002,0.0,-0.5129,1,DS88
48,1.428,1.0,0.5129,1,DS88
49,1.411,1.0,0.5129,1,DS88
50,1.865,1.0,0.5129,1,DS88
51,1.113,1.0,0.5129,1,DS88
52,1.266,1.0,0.5129,1,DS88
53,1.963,1.0,0.5129,1,DS88
54,1.589,1.0,0.5129,1,DS88
55,1.534,1.0,0.5129,1,DS88
56,1.667,0.0,-0.5129,1,DS88
57,1.466,1.0,0.5129,1,DS88
58,1.872,1.0,0.5129,1,DS88
59,1.909,0.0,0.5129,0,DS88
60,1.907,1.0,-0.5129,0,DS88
61,2.077,1.0,0.5129,1,DS88
62,1.699,1.0,0.5129,1,DS88
63,1.889,0.0,-0.5129,1,DS88
64,1.963,1.0,0.5129,1,DS88
65,2.092,1.0,0.5129,1,DS88
66,1.881,0.0,-0.5129,1,DS88
67,1.974,1.0,-0.5129,0,DS88
68,1.282,0.0,-0.5129,1,DS88
69,1.56,0.0,0.5129,0,DS88
70,2.214,0.0,0.5129,0,DS88
71,2.001,1.0,0.5129,1,DS88
72,2.136,0.0,0.5129,0,DS88
73,4.448,1.0,0.5129,1,DS88
74,1.093,0.0,-0.5129,1,DS88
75,1.267,0.0,0.5129,0,DS88
76,1.723,0.0,0.5129,0,DS88
77,1.912,1.0,0.5129,1,DS88
78,1.907,1.0,0.5129,1,DS88
79,1.615,1.0,0.5129,1,DS88
80,1.627,1.0,0.5129,1,DS88
81,2.359,1.0,0.5129,1,DS88
82,2.101,0.0,0.5129,0,DS88
83,1.427,1.0,0.5129,1,DS88
84,2.297,0.0,0.5129,0,DS88
85,2.001,0.0,0.5129,0,DS88
86,1.523,1.0,0.5129,1,DS88
87,1.421,1.0,0.5129,1,DS88
88,1.232,1.0,0.5129,1,DS88
89,0.987,1.0,0.5129,1,DS88
90,0.838,1.0,-0.5129,0,DS88
91,1.729,1.0,-0.5129,0,DS88
92,1.305,1.0,0.5129,1,DS88
93,0.637,1.0,-0.5129,0,DS88
94,0.772,1.0,0.5129,1,DS88
95,1.474,1.0,0.5129,1,DS88
96,1.139,1.0,0.5129,1,DS88
97,1.435,1.0,0.5129,1,DS88
98,1.586,1.0,0.5129,1,DS88
99,1.295,1.0,0.5129,1,DS88
100,1.377,1.0,0.5129,1,DS88
1,1.204,1.0,0.5129,1,DS88
2,0.995,1.0,0.5129,1,DS88
3,1.506,1.0,0.5129,1,DS88
4,1.344,1.0,0.5129,1,DS88
5,1.296,1.0,-0.5129,0,DS88
6,1.556,1.0,0.5129,1,DS88
7,1.482,1.0,-0.5129,0,DS88
8,1.339,0.0,0.5129,0,DS88
9,1.238,1.0,0.5129,1,DS88
10,1.294,0.0,-0.5129,1,DS88
11,1.216,0.0,0.5129,0,DS88
12,1.122,1.0,0.5129,1,DS88
13,1.67,0.0,-0.5129,1,DS88
14,1.304,1.0,0.5129,1,DS88
15,1.151,1.0,0.5129,1,DS88
16,1.219,0.0,-0.5129,1,DS88
17,1.675,0.0,-0.5129,1,DS88
18,1.723,0.0,0.5129,0,DS88
19,1.245,1.0,0.5129,1,DS88
20,0.967,1.0,0.5129,1,DS88
21,1.088,1.0,0.5129,1,DS88
22,1.048,1.0,0.5129,1,DS88
23,0.986,1.0,0.5129,1,DS88
24,1.345,1.0,-0.5129,0,DS88
25,1.628,0.0,0.5129,0,DS88
26,1.303,1.0,0.5129,1,DS88
27,1.059,1.0,0.5129,1,DS88
28,1.278,1.0,0.5129,1,DS88
29,1.281,0.0,-0.5129,1,DS88
30,2.124,0.0,0.5129,0,DS88
31,1.962,1.0,0.5129,1,DS88
32,1.714,1.0,0.5129,1,DS88
33,1.16,1.0,0.5129,1,DS88
34,1.029,1.0,0.5129,1,DS88
35,1.247,1.0,0.5129,1,DS88
36,1.199,1.0,0.5129,1,DS88
37,0.999,1.0,0.5129,1,DS88
38,1.453,1.0,0.5129,1,DS88
39,1.468,0.0,0.5129,0,DS88
40,1.152,0.0,-0.5129,1,DS88
41,1.271,0.0,0.5129,0,DS88
42,1.18,1.0,0.5129,1,DS88
43,1.928,1.0,0.5129,1,DS88
44,1.132,0.0,-0.5129,1,DS88
45,1.105,1.0,-0.5129,0,DS88
46,1.283,0.0,0.5129,0,DS88
47,1.021,1.0,0.5129,1,DS88
48,0.977,0.0,0.5129,0,DS88
49,1.469,1.0,0.5129,1,DS88
50,1.411,1.0,0.5129,1,DS88
51,1.546,1.0,0.5129,1,DS88
52,1.337,1.0,-0.5129,0,DS88
53,1.57,1.0,0.5129,1,DS88
54,1.504,0.0,-0.5129,1,DS88
55,1.333,1.0,-0.5129,0,DS88
56,0.993,1.0,0.5129,1,DS88
57,1.146,1.0,0.5129,1,DS88
58,1.125,1.0,0.5129,1,DS88
59,0.965,1.0,0.5129,1,DS88
60,1.075,1.0,0.5129,1,DS88
61,0.912,1.0,-0.5129,0,DS88
62,1.089,1.0,0.5129,1,DS88
63,1.242,1.0,0.5129,1,DS88
64,1.478,1.0,-0.5129,0,DS88
65,1.268,0.0,-0.5129,1,DS88
66,1.093,1.0,0.5129,1,DS88
67,1.029,0.0,-0.5129,1,DS88
68,1.2,0.0,0.5129,0,DS88
69,1.726,0.0,0.5129,0,DS88
70,1.579,0.0,0.5129,0,DS88
71,1.834,0.0,-0.5129,1,DS88
72,2.105,1.0,0.5129,1,DS88
73,1.833,1.0,0.5129,1,DS88
74,1.655,1.0,0.5129,1,DS88
75,1.51,0.0,0.5129,0,DS88
76,0.921,1.0,0.5129,1,DS88
77,1.265,1.0,0.5129,1,DS88
78,1.157,1.0,0.5129,1,DS88
79,2.517,0.0,0.5129,0,DS88
80,1.142,0.0,0.5129,0,DS88
81,0.87,0.0,0.5129,0,DS88
82,0.841,0.0,0.5129,0,DS88
83,0.998,0.0,0.5129,0,DS88
84,1.141,1.0,0.5129,1,DS88
85,1.07,1.0,0.5129,1,DS88
86,0.908,1.0,0.5129,1,DS88
87,1.348,1.0,0.5129,1,DS88
88,1.035,1.0,0.5129,1,DS88
89,1.302,1.0,0.5129,1,DS88
90,1.441,1.0,0.5129,1,DS88
91,1.473,1.0,0.5129,1,DS88
92,1.869,1.0,-0.5129,0,DS88
93,1.138,1.0,0.5129,1,DS88
94,1.989,1.0,0.5129,1,DS88
95,2.087,1.0,0.5129,1,DS88
96,1.581,1.0,0.5129,1,DS88
97,1.125,1.0,0.5129,1,DS88
98,1.149,0.0,0.5129,0,DS88
99,2.147,0.0,0.5129,0,DS88
100,1.019,1.0,0.5129,1,DS88
1,1.053,1.0,0.5129,1,DS88
2,1.281,1.0,0.5129,1,DS88
3,1.305,0.0,-0.5129,1,DS88
4,1.127,1.0,-0.5129,0,DS88
5,0.819,0.0,0.5129,0,DS88
6,1.287,1.0,-0.5129,0,DS88
7,1.182,0.0,-0.5129,1,DS88
8,0.902,1.0,0.5129,1,DS88
9,1.216,0.0,-0.5129,1,DS88
10,1.247,0.0,0.5129,0,DS88
11,1.034,1.0,0.5129,1,DS88
12,1.339,1.0,0.5129,1,DS88
13,0.915,1.0,0.5129,1,DS88
14,1.241,0.0,0.5129,0,DS88
